"Time (s)","Gyroscope x (rad/s)","Gyroscope y (rad/s)","Gyroscope z (rad/s)"
4.542225700E-2,2.762282491E-1,-8.411346078E-1,7.684324980E-1
6.536548700E-2,1.013968661E-1,-8.512543440E-1,7.161694765E-1
8.525996600E-2,1.185071748E-2,-8.038514853E-1,6.324821115E-1
1.050943410E-1,3.475322574E-2,-6.396724582E-1,5.179029703E-1
1.249976220E-1,1.232341453E-1,-2.846835256E-1,3.633110523E-1
1.448692370E-1,2.207695395E-1,1.822214276E-1,2.066552043E-1
1.648040280E-1,2.469343245E-1,4.993945658E-1,8.561810106E-2
1.847017370E-1,1.691057384E-1,5.563845038E-1,2.170412242E-2
2.045973100E-1,6.657706108E-4,4.572512805E-1,-1.191729400E-2
2.244478820E-1,-2.061225921E-1,3.613137305E-1,-3.268933669E-2
2.443327780E-1,-3.750951886E-1,2.936048508E-1,-1.458037738E-2
2.642269970E-1,-4.928700030E-1,2.573869228E-1,1.311568171E-2
2.841216320E-1,-5.280892849E-1,2.749632597E-1,5.632419512E-2
3.040285070E-1,-4.934026301E-1,4.071853161E-1,9.254211932E-2
3.239139760E-1,-4.257603288E-1,5.947995186E-1,7.656362653E-2
3.437868410E-1,-3.372794092E-1,6.896718144E-1,2.117150649E-2
3.636854870E-1,-3.041906059E-1,6.267564893E-1,-2.150439098E-2
3.835842890E-1,-3.154421151E-1,4.737623930E-1,-2.629793994E-2
4.035149660E-1,-3.036579788E-1,3.586506546E-1,-4.014597088E-2
4.233621010E-1,-2.087856680E-1,3.522592485E-1,-9.666989744E-2
4.432685600E-1,-4.360797629E-2,4.370118380E-1,-1.931400597E-1
4.631448100E-1,1.440061927E-1,5.361450911E-1,-3.669061959E-1
4.830437680E-1,3.561872840E-1,6.038539410E-1,-6.131081581E-1
5.029330910E-1,6.621088982E-1,7.322811484E-1,-9.553142786E-1
5.228511120E-1,1.117296338E0,8.218272924E-1,-1.455241442E0
5.427356950E-1,1.679073572E0,3.117803931E-1,-2.110825777E0
5.626430390E-1,2.287787676E0,-8.517869711E-1,-2.721670389E0
5.825348620E-1,2.840510368E0,-1.915688396E0,-3.334645510E0
6.023917890E-1,3.386775255E0,-2.263686657E0,-3.917727232E0
6.222717370E-1,4.049350262E0,-1.727009058E0,-4.379838943E0
6.421935600E-1,4.638290882E0,-4.813521802E-1,-4.754534245E0
6.620707470E-1,5.002866745E0,8.473928571E-1,-4.893680573E0
6.819502780E-1,5.369040966E0,1.899044156E0,-4.959724903E0
7.018492370E-1,5.944133282E0,2.550367594E0,-4.966649055E0
7.217277780E-1,6.555510521E0,2.740112305E0,-4.668183804E0
7.416431430E-1,6.785734177E0,2.758221149E0,-4.264194489E0
7.615999140E-1,6.229815483E0,2.315816641E0,-3.878313780E0
7.814055390E-1,4.754467964E0,5.132426023E-1,-3.247229815E0
8.012879350E-1,2.179533243E0,-2.745038986E0,-2.427999020E0
8.212040800E-1,-1.163434148E0,-6.005917072E0,-1.464828610E0
8.410763200E-1,-4.193489552E0,-7.558028221E0,1.112502739E-1
8.609888720E-1,-6.372423649E0,-7.149178505E0,2.023077250E0
8.808790800E-1,-8.040179253E0,-5.600795746E0,3.707343817E0
9.007585070E-1,-9.432372093E0,-4.147884369E0,4.609196663E0
9.206876740E-1,-1.068442059E1,-3.946355581E0,4.499411106E0
9.405946010E-1,-1.171949387E1,-5.096607208E0,3.657277822E0
9.604237160E-1,-1.171310234E1,-7.177406788E0,3.076858997E0
9.803260070E-1,-1.029847336E1,-7.488721371E0,3.300691128E0
1.000216997E0,-9.710597992E0,-4.755466461E0,4.499943733E0
1.020105487E0,-9.468057632E0,-1.090066314E0,5.830819130E0
1.040010851E0,-7.764083862E0,1.602643132E0,5.869766712E0
1.059895487E0,-6.254648685E0,2.294512033E0,5.487082005E0
1.079787257E0,-5.126766682E0,2.304631710E0,4.414125919E0
1.099651997E0,-2.770404816E0,3.011946440E0,2.910549402E0
1.119557518E0,2.426733971E-1,3.841829538E0,3.116805315E0
1.139430591E0,3.954677656E-2,9.583102465E-1,3.863533497E0
1.159325018E0,1.894383788E0,7.776200771E-2,2.322607517E0
1.179229445E0,3.803614140E0,-7.089791298E-1,2.527864456E0
1.199106007E0,4.419785023E0,-6.487269402E-1,2.642443657E0
1.219033351E0,4.583897591E0,7.296846062E-2,2.802361727E0
1.238898351E0,4.347815037E0,1.324883569E-2,3.556014061E0
1.258813872E0,3.819060087E0,-6.274222732E-1,3.935503483E0
1.278702414E0,3.199693680E0,-1.391194344E0,4.056473732E0
1.298612987E0,2.675266266E0,-2.145911932E0,4.009603500E0
1.318496372E0,2.423671484E0,-2.941174984E0,3.803813934E0
1.338367414E0,2.420475721E0,-3.491234541E0,3.373193502E0
1.358265330E0,2.269612074E0,-3.761404276E0,2.860949516E0
1.378128768E0,1.846448302E0,-3.889365435E0,2.309292078E0
1.398033768E0,1.374749780E0,-3.893626451E0,1.624413729E0
1.417927466E0,1.107709169E0,-3.804612875E0,9.432638288E-1
1.437814028E0,9.883365035E-1,-3.620727062E0,4.918047786E-1
1.457701997E0,9.142362475E-1,-3.227922440E0,1.522617489E-1
1.477610070E0,7.937317491E-1,-2.586185932E0,-2.123142630E-1
1.497525122E0,6.658372283E-1,-1.940721393E0,-5.102466345E-1
1.517377935E0,6.653046012E-1,-1.634799838E0,-6.099124551E-1
1.537281789E0,7.346113324E-1,-1.649713039E0,-5.965970755E-1
1.557212518E0,8.140377402E-1,-1.693920255E0,-5.123770833E-1
1.577043820E0,8.918663263E-1,-1.586265087E0,-3.508611321E-1
1.596949341E0,9.488562942E-1,-1.374683261E0,-1.931400597E-1
1.616843820E0,9.557803273E-1,-1.163567305E0,-5.346138403E-2
1.636725955E0,9.142362475E-1,-1.035140157E0,5.046541616E-2
1.656623716E0,8.619732261E-1,-1.053249121E0,1.203047559E-1
1.676514185E0,8.289510012E-1,-1.159306407E0,1.453377306E-1
1.696404757E0,7.718944550E-1,-1.205710649E0,1.293592304E-1
1.716309237E0,6.706307530E-1,-1.092729330E0,1.058575287E-1
1.736215955E0,5.736280084E-1,-8.571131229E-1,9.733566642E-2
1.756071528E0,5.310186744E-1,-6.279548407E-1,1.160438210E-1
1.775951632E0,5.139083862E-1,-4.962654412E-1,1.293592304E-1
1.795875851E0,4.734295011E-1,-4.226977825E-1,1.165764406E-1
1.815761997E0,4.206338823E-1,-3.491967022E-1,1.229678392E-1
1.835615018E0,3.940030634E-1,-2.814878225E-1,1.320223212E-1
1.855548247E0,3.780245781E-1,-2.474003732E-1,1.187069044E-1
1.875437726E0,3.428718746E-1,-2.185724974E-1,8.668334037E-2
1.895320382E0,3.007285893E-1,-1.834198087E-1,4.886756465E-2
1.915226997E0,2.735651433E-1,-1.818219572E-1,4.194355011E-2
1.935084914E0,2.639780641E-1,-1.924742907E-1,4.780233279E-2
1.955003039E0,2.543909550E-1,-1.999309212E-1,1.744319126E-2
1.974871632E0,2.271609455E-1,-1.876807362E-1,-4.600474983E-2
1.994781060E0,2.085193694E-1,-1.370155960E-1,-1.456706226E-1
2.014665487E0,2.244978547E-1,-9.973244369E-2,-2.586518824E-1
2.034600382E0,2.149107605E-1,-1.508636326E-1,-3.284912407E-1
2.054478924E0,2.085193694E-1,-3.251623809E-1,-3.716997504E-1
2.074312882E0,2.410755455E-1,-5.405392051E-1,-4.292223454E-1
2.094213299E0,3.225658834E-1,-6.673684716E-1,-4.985290468E-1
2.114119653E0,4.260266423E-1,-7.281533480E-1,-5.816838145E-1
2.133986164E0,5.208989382E-1,-8.736242056E-1,-7.570477724E-1
2.153875174E0,6.098458767E-1,-1.199851871E0,-9.952605367E-1
2.173774185E0,7.196980715E-1,-1.665158987E0,-1.270290375E0
2.193681789E0,7.964614034E-1,-2.103835106E0,-1.638062119E0
2.213572935E0,8.513209224E-1,-2.100106955E0,-2.092716932E0
2.233445903E0,9.643021822E-1,-1.640658617E0,-2.597504139E0
2.253336997E0,1.222820878E0,-1.092729330E0,-2.956221342E0
2.273241737E0,1.569288015E0,-6.157047153E-1,-3.169933796E0
2.293136372E0,1.890655518E0,-1.130478531E-1,-3.464670420E0
2.313031268E0,2.242981195E0,4.428706169E-1,-3.781843424E0
2.332916476E0,2.739246607E0,1.141596913E0,-4.116526604E0
2.352789185E0,3.410809517E0,1.993383884E0,-4.562659264E0
2.372721685E0,4.144222736E0,2.866408825E0,-5.099403858E0
2.392656528E0,4.777969360E0,3.669128656E0,-5.634550095E0
2.412521997E0,5.010856152E0,4.413726330E0,-5.941004276E0
2.432355174E0,4.378706932E0,4.736159325E0,-5.794934273E0
2.452285122E0,2.869271755E0,3.700552940E0,-5.236352444E0
2.472158195E0,7.351439595E-1,7.051177025E-1,-4.702271461E0
2.492066580E0,-1.646317601E0,-3.894159079E0,-4.125580788E0
2.511924393E0,-3.730312824E0,-8.280721664E0,-2.624667645E0
2.531823872E0,-5.134822845E0,-9.540760040E0,-7.948635817E-1
2.551739289E0,-6.251452923E0,-7.724803448E0,1.061038613E0
2.571605174E0,-7.785388947E0,-4.499610901E0,2.607290983E0
2.591567049E0,-9.415328026E0,-2.392713070E0,3.153555870E0
2.611397257E0,-1.037417126E1,-3.499756575E0,2.860416889E0
2.631282674E0,-1.051438236E1,-5.891337872E0,2.737848520E0
2.651171216E0,-1.050266457E1,-5.873162270E0,3.141838312E0
2.671070174E0,-1.103082085E1,-3.871256590E0,3.974384308E0
2.690958872E0,-9.473383904E0,-1.449316144E0,4.515389442E0
2.710832518E0,-7.004040241E0,5.995930433E-1,4.466388702E0
2.730741737E0,-5.828222752E0,1.764159083E0,3.944025278E0
2.750645018E0,-4.993013382E0,1.989655614E0,3.114142179E0
2.770581424E0,-3.412141085E0,1.418757200E0,2.350902796E0
2.790421997E0,-7.834123373E-1,1.463563561E0,2.224006891E0
2.810302935E0,6.567827463E-1,2.792242169E-1,2.859884262E0
2.830230903E0,1.822480559E0,-6.162372828E-1,2.307161570E0
2.850074757E0,3.491833925E0,-5.165048838E-1,1.762960672E0
2.869989289E0,4.416589260E0,-1.005313635E0,1.865356207E0
2.889879914E0,4.604735851E0,-1.413564205E0,2.079068661E0
2.909767362E0,4.305139065E0,-1.320289731E0,2.584854603E0
2.929647466E0,3.714600801E0,-1.120957971E0,3.150360107E0
2.949556268E0,3.077657938E0,-1.315496206E0,3.437640190E0
2.969438351E0,2.595839739E0,-1.805836320E0,3.393965483E0
2.989335018E0,2.416747332E0,-2.352167606E0,3.169600964E0
3.009234393E0,2.373605490E0,-2.726863384E0,2.830590487E0
3.029123039E0,2.151304722E0,-2.886248827E0,2.398305655E0
3.048996320E0,1.678540945E0,-2.823866129E0,1.864823580E0
3.068867570E0,1.202048898E0,-2.492911577E0,1.232141733E0
3.088799653E0,9.781502485E-1,-2.071811676E0,6.569824815E-1
3.108679705E0,9.302147627E-1,-1.793586135E0,3.095167577E-1
3.128568612E0,8.625058532E-1,-1.676343918E0,6.910699606E-2
3.148475487E0,7.175676227E-1,-1.647050023E0,-1.643121988E-1
3.168359080E0,5.453993082E-1,-1.652376175E0,-3.610474169E-1
3.188257310E0,4.851470590E-1,-1.697115898E0,-4.671046734E-1
3.208131685E0,4.819513559E-1,-1.761629105E0,-4.265592396E-1
3.228019237E0,4.681033492E-1,-1.717887998E0,-2.997299433E-1
3.247899757E0,4.968646169E-1,-1.452511787E0,-2.320210636E-1
3.267817101E0,5.842803121E-1,-1.082609653E0,-2.080533206E-1
3.287689185E0,6.418694854E-1,-8.070471883E-1,-1.355509013E-1
3.307582987E0,6.232278943E-1,-6.860100627E-1,-4.334167019E-2
3.327490539E0,5.592473149E-1,-6.252917647E-1,-1.564561017E-2
3.347377622E0,4.942015409E-1,-5.565176606E-1,-1.937392540E-2
3.367278664E0,4.457334578E-1,-4.515256584E-1,-1.777607575E-2
3.387131893E0,3.785571754E-1,-3.363473415E-1,5.126433913E-3
3.407050122E0,2.788913250E-1,-2.302900702E-1,6.378082931E-2
3.426918143E0,1.754971445E-1,-1.263632625E-1,1.464029700E-1
3.446832205E0,1.184405982E-1,2.336854860E-2,1.666423976E-1
3.466722518E0,9.074454010E-2,1.880802065E-1,1.591857672E-1
3.486613924E0,7.689651102E-2,3.197696507E-1,1.559900641E-1
3.506506007E0,3.794892505E-2,3.794226944E-1,1.639793068E-1
3.526379237E0,-5.193010904E-3,3.991295099E-1,1.453377306E-1
3.546271789E0,-4.254274443E-2,4.045222402E-1,1.235004514E-1
3.566172310E0,-8.834776282E-2,4.071853161E-1,1.362832487E-1
3.586056737E0,-1.326215118E-1,4.343487620E-1,1.426746547E-1
3.605973507E0,-1.645784974E-1,4.593817294E-1,1.314896941E-1
3.625854810E0,-1.640458852E-1,4.567186534E-1,1.010639817E-1
3.645727362E0,-1.496652365E-1,4.252942801E-1,7.816147059E-2
3.665612153E0,-1.587197185E-1,3.938033283E-1,6.644391268E-2
3.685546476E0,-1.778939217E-1,3.724986613E-1,5.472634733E-2
3.705393924E0,-1.746982187E-1,3.197696507E-1,5.046541616E-2
3.725306060E0,-1.539261788E-1,2.472672164E-1,3.821523488E-2
3.745185018E0,-1.326215118E-1,1.667755395E-1,2.916075476E-2
3.765083455E0,-1.213699877E-1,7.563154399E-2,8.322132751E-3
3.784962518E0,-1.203047559E-1,-2.083862014E-2,-1.990654133E-2
3.804870382E0,-1.005979404E-1,-1.050586104E-1,-4.547213390E-2
3.824768039E0,-5.266245827E-2,-1.594520658E-1,-7.263557613E-2
3.844669549E0,-3.994623839E-4,-2.063223273E-1,-8.601756394E-2
3.864585018E0,2.143781446E-2,-2.852161527E-1,-9.560466558E-2
3.884410591E0,4.966649041E-2,-4.210999310E-1,-1.291595101E-1
3.904323664E0,1.003316343E-1,-5.980617404E-1,-1.931400597E-1
3.924204185E0,1.765623689E-1,-7.888716459E-1,-2.960016131E-1
3.944116476E0,2.746303976E-1,-9.583768249E-1,-3.993957937E-1
3.963982778E0,3.822855055E-1,-1.004781008E0,-5.342143774E-1
3.983882153E0,5.139083862E-1,-9.631704092E-1,-6.770887375E-1
4.003793872E0,6.626415253E-1,-9.716922641E-1,-7.346779108E-1
4.023648768E0,7.959287763E-1,-1.067629814E0,-7.490585446E-1
4.043569914E0,9.025186896E-1,-1.160371661E0,-8.268871307E-1
4.063451737E0,1.000054121E0,-1.245124221E0,-9.579773545E-1
4.083333664E0,1.089600205E0,-1.288332820E0,-1.044860482E0
4.103228091E0,1.170091867E0,-1.227547884E0,-1.065099835E0
4.123113560E0,1.186603069E0,-1.149186730E0,-1.060306311E0
4.143016685E0,1.130611658E0,-1.222221732E0,-1.061371565E0
4.162895747E0,1.011239052E0,-1.417292595E0,-1.143993735E0
4.182786789E0,8.220270276E-1,-1.753639817E0,-1.148254633E0
4.202686164E0,7.580464482E-1,-2.088322878E0,-9.936626554E-1
4.222597674E0,7.734923363E-1,-2.224805832E0,-1.040599465E0
4.242457987E0,9.110405445E-1,-2.194979191E0,-1.143993735E0
4.262335382E0,1.148720622E0,-1.901773810E0,-1.341727614E0
4.282238924E0,1.501046538E0,-1.168360949E0,-1.851841092E0
4.302117570E0,1.992451787E0,-5.545869470E-2,-2.616678238E0
4.322042830E0,2.521206856E0,1.229545236E0,-3.529716253E0
4.341912570E0,2.944437265E0,2.490648031E0,-4.605801105E0
4.361810018E0,3.006220818E0,3.449490786E0,-5.650528431E0
4.381696007E0,2.476467133E0,3.919125557E0,-6.339135170E0
4.401615747E0,1.463763356E0,4.001148224E0,-6.277285099E0
4.421570955E0,8.122402243E-3,3.318400621E0,-5.257124901E0
4.441384653E0,-1.708167672E0,7.920007706E-1,-3.654415131E0
4.461271632E0,-2.936181784E0,-2.814811707E0,-2.047976971E0
4.481196580E0,-3.382314682E0,-4.508731842E0,-7.906026244E-1
4.501056632E0,-3.761803865E0,-3.150093794E0,4.939352274E-1
4.520965851E0,-4.759061813E0,-9.226915240E-1,1.279011965E0
4.540840747E0,-6.063306332E0,-4.959991202E-2,5.290879011E-1
4.560745955E0,-8.201162338E0,-2.024941444E0,-7.416019440E-1
4.580639393E0,-1.070519257E1,-4.584896088E0,-1.455241442E0
4.600552830E0,-1.237454605E1,-6.539998055E0,1.187069044E-1
4.620387987E0,-1.270496750E1,-6.493061543E0,2.883386135E0
4.640269914E0,-9.966985703E0,-3.862202168E0,3.614069223E0
4.660211528E0,-6.535537720E0,-1.796781778E0,4.159868240E0
4.680086997E0,-4.341690063E0,-5.426696539E-1,4.786158562E0
4.699969185E0,-2.813080788E0,9.241562486E-1,4.384831905E0
4.719843351E0,-1.128214955E0,1.627742648E0,3.948818922E0
4.739758664E0,5.746932030E-1,1.574414372E0,3.601819277E0
4.759657726E0,1.935994387E0,1.481672525E0,3.022998095E0
4.779548455E0,2.899098158E0,1.541392207E0,2.414283991E0
4.799498872E0,3.621326208E0,1.703973413E0,2.018283606E0
4.819297830E0,3.937367678E0,1.605905414E0,1.917552590E0
4.839224393E0,3.689035177E0,1.103781104E0,2.123808384E0
4.859106632E0,3.113409758E0,5.473300219E-1,2.416414499E0
4.878996060E0,2.484456301E0,1.155777797E-1,2.644041538E0
4.898876320E0,1.853904963E0,-4.179042280E-1,2.747435808E0
4.918792830E0,1.355575562E0,-9.764857888E-1,2.653628588E0
4.938704757E0,1.135405302E0,-1.403977156E0,2.398838282E0
4.958568820E0,1.052783132E0,-1.770151019E0,2.120079994E0
4.978423664E0,8.449295163E-1,-2.111291885E0,1.818951964E0
4.998325382E0,5.342143774E-1,-2.297308207E0,1.469289184E0
5.018234810E0,3.316203654E-1,-2.209892511E0,1.089267373E0
5.038108768E0,3.492632806E-1,-2.003636837E0,7.369415164E-1
5.058019914E0,4.526574612E-1,-1.868219018E0,4.939352274E-1
5.077911060E0,5.256925225E-1,-1.766422629E0,2.407426685E-1
5.097797882E0,5.576494932E-1,-1.747248411E0,-3.481980413E-2
5.117695851E0,5.587147474E-1,-1.834131479E0,-2.293579876E-1
5.137596580E0,5.453993082E-1,-1.957765102E0,-3.386109471E-1
5.157464080E0,5.246272683E-1,-2.063289881E0,-3.770259023E-1
5.177344185E0,4.782230556E-1,-2.022278309E0,-3.999284208E-1
5.197246320E0,4.361463487E-1,-1.787194729E0,-3.754280508E-1
5.217139132E0,4.308201671E-1,-1.429010153E0,-3.039908707E-1
5.237051268E0,4.643750191E-1,-1.048455596E0,-2.053902447E-1
5.256924497E0,5.214315653E-1,-7.537189126E-1,-1.126483902E-1
5.276824601E0,5.720301270E-1,-6.300853491E-1,-3.695027158E-2
5.296692466E0,5.965304971E-1,-6.391398311E-1,9.919982404E-3
5.316604341E0,5.858781338E-1,-6.865426898E-1,2.330197208E-2
5.336496580E0,5.608451962E-1,-7.563820481E-1,8.881380409E-2
5.356383716E0,5.235620141E-1,-7.393382788E-1,1.261635423E-1
5.376273820E0,4.739621282E-1,-6.135076284E-1,1.378811002E-1
5.396210487E0,4.452008307E-1,-4.301544130E-1,1.671750098E-1
5.416053664E0,4.163729548E-1,-2.761616707E-1,1.932732165E-1
5.435960643E0,3.849485815E-1,-1.908764392E-1,1.959362924E-1
5.455812310E0,3.615134656E-1,-1.087869257E-1,1.804904193E-1
5.475740122E0,3.257615864E-1,1.537930220E-2,1.618488431E-1
5.495599185E0,2.687716186E-1,1.017297506E-1,1.591857672E-1
5.515515122E0,2.159759998E-1,8.894696087E-2,1.474681944E-1
5.535386112E0,1.717688292E-1,4.633763805E-2,1.058575287E-1
5.555283351E0,1.386800259E-1,3.834838793E-2,7.123745978E-2
5.575186060E0,1.189732105E-1,5.912043154E-2,5.951989442E-2
5.595065643E0,8.967930824E-2,7.509893179E-2,5.419373140E-2
5.614943299E0,5.772231519E-2,7.296846062E-2,4.034570232E-2
5.634844601E0,1.877473295E-2,5.645735189E-2,3.022598661E-2
5.654771320E0,-4.127778113E-3,5.485950038E-2,1.850842312E-2
5.674649393E0,-1.318225823E-2,4.314193875E-2,1.531272475E-2
5.694562570E0,-7.323476952E-3,2.177070081E-2,8.655018173E-4
5.714429341E0,-6.258244161E-3,1.165098604E-2,-2.862813650E-3
5.734305695E0,-1.464695437E-3,5.485950038E-2,-1.830869168E-2
5.754193924E0,7.589785382E-3,6.338136643E-2,-1.458037738E-2
5.774095487E0,1.344856713E-2,1.857500151E-2,-1.564561017E-2
5.793989601E0,2.356828004E-2,-3.841496632E-2,-2.470009029E-2
5.813864966E0,2.143781446E-2,-7.416684926E-2,-3.481980413E-2
5.833771268E0,3.475322574E-2,-5.758916214E-2,-7.157034427E-2
5.853661164E0,5.179695413E-2,-3.788235039E-2,-8.441971987E-2
5.873573820E0,6.091801450E-2,-4.267589748E-2,-9.400681406E-2
5.893445903E0,5.665707961E-2,-9.121058136E-2,-9.773512930E-2
5.913331685E0,4.327509180E-2,-1.482005417E-1,-9.240896255E-2
5.933228299E0,3.049229458E-2,-1.701043993E-1,-8.868064731E-2
5.953123455E0,3.155753016E-2,-1.882133633E-1,-8.921326697E-2
5.972990330E0,3.528584540E-2,-2.249639034E-1,-9.507204592E-2
5.992909185E0,4.700340703E-2,-2.409423888E-1,-1.025286764E-1
6.012805539E0,5.392742157E-2,-2.463351339E-1,-9.880036116E-2
6.032684237E0,4.007939249E-2,-2.809551954E-1,-9.507204592E-2
6.052584289E0,2.463351376E-2,-3.326190114E-1,-9.613727778E-2
6.072443820E0,3.155753016E-2,-3.651751876E-1,-1.009308323E-1
6.092348299E0,4.860125855E-2,-3.662404418E-1,-1.099853069E-1
6.112224445E0,7.210296392E-2,-3.555881083E-1,-1.344856620E-1
6.132107987E0,1.013968661E-1,-3.582511842E-1,-1.616491079E-1
6.152019914E0,1.365495622E-1,-3.838167787E-1,-1.814225018E-1
6.171911372E0,1.802906841E-1,-4.334166944E-1,-1.899443567E-1
6.191812830E0,2.165086120E-1,-4.696346223E-1,-1.856834292E-1
6.211664914E0,2.767608464E-1,-4.339492917E-1,-1.664426625E-1
6.231590382E0,3.657743931E-1,-3.118469715E-1,-1.509967744E-1
6.251470903E0,4.537226856E-1,-1.295589656E-1,-1.867486686E-1
6.271346841E0,5.374100804E-1,5.805519968E-2,-2.762948275E-1
6.291249549E0,6.333476305E-1,2.723001838E-1,-4.111133814E-1
6.311138924E0,7.388722301E-1,5.233622789E-1,-5.784881115E-1
6.331053039E0,8.491904736E-1,5.462648273E-1,-8.129725456E-1
6.350931685E0,9.760197401E-1,4.314193875E-2,-1.203713298E0
6.370843091E0,1.183939934E0,-6.354115009E-1,-1.535733104E0
6.390741737E0,1.522883773E0,-8.981911540E-1,-1.939256668E0
6.410681060E0,1.850709200E0,-7.659690976E-1,-2.427999020E0
6.430497518E0,2.192382812E0,-4.504604042E-1,-2.882653713E0
6.450385382E0,2.728527784E0,1.006645188E-1,-3.460409403E0
6.470269185E0,3.399091959E0,8.394036293E-1,-4.166658878E0
6.490179810E0,4.002413273E0,1.663960576E0,-4.945877075E0
6.510062153E0,4.359000206E0,2.582857132E0,-5.811977863E0
6.529974653E0,4.166592598E0,3.062012434E0,-6.358309269E0
6.549835487E0,2.803693295E0,1.928338051E0,-5.904719830E0
6.569728976E0,2.815544009E-1,-1.951906323E0,-4.395817280E0
6.589611945E0,-1.646317601E0,-6.243597031E0,-2.978591204E0
6.609546685E0,-1.402712107E0,-6.803776264E0,-2.170012712E0
6.629407101E0,-8.868064880E-1,-4.046087742E0,-5.390079021E-1
6.649292570E0,-2.911681414E0,-3.422726989E-1,3.744959831E-1
6.669211372E0,-6.791859150E0,1.698647261E0,-1.444056511E0
6.689081476E0,-9.548548698E0,-1.399716139E0,-2.983384848E0
6.708964028E0,-1.057669830E1,-6.537268639E0,-2.906088829E0
6.728841476E0,-1.116623878E1,-8.470466614E0,-1.430208445E0
6.748758039E0,-1.091357899E1,-6.307044983E0,6.447322965E-1
6.768692882E0,-9.235171318E0,-3.063743353E0,2.408425331E0
6.788595382E0,-7.344582081E0,-1.103381634E0,4.174781322E0
6.808438560E0,-5.992934227E0,3.527918756E-1,5.137951851E0
6.828328612E0,-5.325632572E0,1.557903290E0,5.110788345E0
6.848232205E0,-4.719581604E0,1.809498072E0,4.670514107E0
6.868109185E0,-3.628516674E0,1.146989703E0,4.326710224E0
6.888000018E0,-2.277934313E0,4.178376496E-1,4.174248695E0
6.907880070E0,-1.065898776E0,2.056565434E-1,3.995755672E0
6.927765382E0,-9.527178109E-2,4.918713570E-1,3.716997385E0
6.947670070E0,9.067795873E-1,9.502544403E-1,3.470196247E0
6.967556268E0,2.001572847E0,1.095791936E0,3.317202330E0
6.987465487E0,2.817008734E0,5.755587220E-1,3.300158501E0
7.007360122E0,3.136844873E0,-3.444031477E-1,3.313473940E0
7.027239862E0,3.077657938E0,-1.238732815E0,3.293766975E0
7.047144393E0,3.006220818E0,-1.973211050E0,3.156218767E0
7.067040226E0,3.008351326E0,-2.815344334E0,2.936647654E0
7.086886893E0,2.854891062E0,-3.699620962E0,2.638182640E0
7.106802570E0,2.621937990E0,-4.254474163E0,2.188854218E0
7.126675799E0,2.541446209E0,-4.402607918E0,1.627609491E0
7.146591893E0,2.569208860E0,-4.486827850E0,1.255576849E0
7.166484757E0,2.588383198E0,-4.711259365E0,1.114300370E0
7.186378039E0,2.405562401E0,-4.778368950E0,8.526524305E-1
7.206277153E0,1.975940704E0,-4.472980022E0,4.816850722E-1
7.226142570E0,1.584733844E0,-3.887234926E0,1.879470497E-1
7.246027049E0,1.501579046E0,-3.347827673E0,9.413997084E-2
7.265938768E0,1.468024254E0,-2.972066641E0,1.330875456E-1
7.285828820E0,1.303845167E0,-2.627197504E0,2.050573528E-1
7.305729080E0,1.003782392E0,-2.177868843E0,1.666423976E-1
7.325602466E0,7.788184881E-1,-1.740857124E0,1.064567268E-1
7.345530903E0,7.207632661E-1,-1.473816514E0,2.205032408E-1
7.365373507E0,7.117088437E-1,-1.251515627E0,3.313540518E-1
7.385294810E0,6.908701658E-1,-1.022889972E0,3.009949028E-1
7.405168664E0,6.642393470E-1,-8.517869711E-1,2.087856680E-1
7.425071580E0,6.855440140E-1,-7.313490510E-1,1.160438210E-1
7.444955591E0,7.090457082E-1,-6.583139896E-1,7.975932211E-2
7.464832466E0,6.834135652E-1,-5.756918788E-1,7.390054315E-2
7.484736841E0,5.938674212E-1,-4.499278069E-1,4.513924941E-2
7.504657622E0,4.728968740E-1,-3.278254569E-1,1.151783206E-2
7.524552830E0,4.105141759E-1,-2.302900702E-1,2.276935615E-2
7.544393560E0,3.689700961E-1,-1.135804728E-1,4.141093418E-2
7.564282987E0,3.161744773E-1,-5.599131063E-2,6.378082931E-2
7.584209653E0,2.538583577E-1,-5.865439400E-2,6.804175675E-2
7.604063612E0,1.850842386E-1,-4.800206423E-2,5.419373140E-2
7.623985747E0,1.274950802E-1,-5.392742343E-3,4.087831825E-2
7.643877153E0,9.873378277E-2,4.101147130E-2,6.644391268E-2
7.663766685E0,4.806863889E-2,8.575125784E-2,7.390054315E-2
7.683636685E0,-4.127778113E-3,1.107842326E-1,4.354140162E-2
7.703557518E0,-2.383458801E-2,1.235670298E-1,-1.997311920E-4
7.723448560E0,-1.850842312E-2,1.449382752E-1,-4.813521728E-2
7.743321685E0,-8.388710208E-3,1.321554780E-1,-8.441971987E-2
7.763202778E0,-1.051917579E-2,8.095771074E-2,-9.560466558E-2
7.783092987E0,-2.010627277E-2,2.816209756E-2,-9.240896255E-2
7.803005330E0,-2.543243766E-2,-4.374112934E-2,-8.282186836E-2
7.822868507E0,-2.543243766E-2,-1.290263534E-1,-7.316819578E-2
7.842777101E0,-2.170412242E-2,-1.743653268E-1,-5.133091658E-2
7.862673039E0,-2.703028731E-2,-1.466026902E-1,-4.121120274E-2
7.882585955E0,-2.969337068E-2,-9.334104508E-2,-4.813521728E-2
7.902440278E0,-2.436720580E-2,-6.031882018E-2,-5.825493112E-2
7.922356737E0,-4.127778113E-3,-7.523208112E-2,-5.985277891E-2
7.942249810E0,1.185071748E-2,-1.114500016E-1,-6.251586229E-2
7.962139914E0,2.623136342E-2,-1.396786869E-1,-6.997249275E-2
7.982027101E0,4.753602296E-2,-1.626477689E-1,-8.228924870E-2
8.001919185E0,6.784202904E-2,-2.063223273E-1,-1.041265279E-1
8.021789966E0,8.009220660E-2,-2.942706347E-1,-1.035939083E-1
8.041671476E0,8.967930824E-2,-3.742296696E-1,-1.195724085E-1
8.061590278E0,1.024620980E-1,-4.307536185E-1,-1.430075318E-1
8.081518716E0,1.061904207E-1,-4.813521802E-1,-1.616491079E-1
8.101358820E0,9.021192044E-2,-5.250933170E-1,-2.005966902E-1
8.121248716E0,5.718969926E-2,-5.708982944E-1,-2.490648031E-1
8.141158664E0,3.688369319E-2,-5.985943675E-1,-2.991973162E-1
8.161033664E0,5.019910634E-2,-5.953986645E-1,-3.669061959E-1
8.180907153E0,8.115743846E-2,-5.751592517E-1,-4.393420517E-1
8.200819705E0,1.109839678E-1,-5.346804261E-1,-5.235620141E-1
8.220714966E0,1.274950802E-1,-4.504604042E-1,-6.845453978E-1
8.240599549E0,1.920082569E-1,-2.974663079E-1,-8.567136526E-1
8.260557830E0,2.948698103E-1,-1.882133633E-1,-1.125352144E0
8.280363716E0,3.876116574E-1,-4.973306656E-1,-1.551179051E0
8.300267518E0,5.016582012E-1,-1.411433816E0,-2.065020800E0
8.320148403E0,6.653046012E-1,-2.497705221E0,-2.451966763E0
8.340058247E0,7.766880393E-1,-3.134647846E0,-2.790444374E0
8.359950955E0,8.007223606E-1,-3.021133900E0,-3.111279249E0
8.379826268E0,8.156356215E-1,-2.161357880E0,-3.363939285E0
8.399740799E0,9.041165113E-1,-6.657706499E-1,-3.600088120E0
8.419626685E0,1.197255373E0,1.197588205E0,-3.918792486E0
8.439514810E0,1.614560366E0,2.975661993E0,-4.281238079E0
8.459388091E0,1.914157152E0,4.394552231E0,-4.678836346E0
8.479302570E0,2.026073217E0,5.329959869E0,-5.065782070E0
8.499194810E0,2.036725521E0,5.576161861E0,-5.371770382E0
8.519103195E0,1.934929252E0,4.372648239E0,-5.261984825E0
8.538990747E0,1.428011417E0,4.945344329E-1,-4.083504200E0
8.558871476E0,-2.330197208E-2,-4.749607563E0,-2.146044970E0
8.578773247E0,-2.322674036E0,-6.467495918E0,-7.384062409E-1
8.598652570E0,-4.380570889E0,-3.029123306E0,-3.151758313E-1
8.618585903E0,-5.767437935E0,6.997914910E-1,5.317510366E-1
8.638419393E0,-7.395246983E0,1.471020222E0,1.005047321E0
8.658310070E0,-9.753273964E0,-5.927355886E-1,2.010627277E-2
8.678199445E0,-1.124619770E1,-4.024184227E0,-8.588441014E-1
8.698093507E0,-1.145884514E1,-6.310240746E0,-7.852764726E-1
8.717986060E0,-1.124459934E1,-6.269229412E0,5.925358534E-1
8.737870070E0,-9.528309822E0,-3.823787212E0,2.004435778E0
8.757793091E0,-7.007236004E0,-1.085805297E0,3.252156496E0
8.777648195E0,-5.202465057E0,8.575125933E-1,4.033038616E0
8.797561476E0,-4.016061783E0,2.081864834E0,4.119921684E0
8.817447830E0,-2.660086632E0,2.541845798E0,3.879512072E0
8.837342310E0,-1.094660044E0,2.227868319E0,3.669528008E0
8.857230695E0,3.892095089E-1,1.572283983E0,3.469130993E0
8.877133247E0,1.640192509E0,8.943297267E-1,3.319865227E0
8.897015226E0,2.624068499E0,4.673709869E-1,3.194633722E0
8.916925435E0,3.319133043E0,2.749632597E-1,3.101359367E0
8.936805799E0,3.715133429E0,-2.031266242E-1,3.253820896E0
8.956681372E0,3.773255110E0,-1.085272670E0,3.423792124E0
8.976593403E0,3.494496822E0,-1.976406693E0,3.427520514E0
8.996486632E0,3.022265911E0,-2.439583302E0,3.301756382E0
9.016344549E0,2.653428793E0,-2.572338104E0,3.042172432E0
9.036250487E0,2.485521555E0,-2.763680458E0,2.738913774E0
9.056138560E0,2.398638487E0,-3.052025795E0,2.350902796E0
9.076032935E0,2.183794260E0,-3.338240623E0,1.890921712E0
9.095921737E0,1.745717168E0,-3.510941505E0,1.361634135E0
9.115828560E0,1.341128349E0,-3.526387453E0,8.744897246E-1
9.135713455E0,1.142329216E0,-3.389371634E0,5.184355974E-1
9.155599497E0,1.073022485E0,-3.090374231E0,2.625799477E-1
9.175474028E0,9.835429788E-1,-2.642643452E0,2.756290510E-2
9.195366007E0,7.884055972E-1,-2.181064606E0,-1.536598653E-1
9.215263768E0,6.147060394E-1,-1.813292861E0,-2.400103211E-1
9.235160747E0,5.123105049E-1,-1.585199952E0,-2.357493788E-1
9.255071632E0,4.611793160E-1,-1.485001445E0,-1.958031505E-1
9.274962830E0,4.265592396E-1,-1.422618747E0,-1.776941866E-1
9.294842830E0,3.971987665E-1,-1.298452497E0,-1.222354919E-1
9.314755799E0,4.009270668E-1,-1.052183867E0,-1.089200750E-1
9.334636685E0,4.067858756E-1,-8.043841124E-1,-1.147788614E-1
9.354522101E0,3.774919510E-1,-6.439333558E-1,-6.730940938E-2
9.374385435E0,3.321529627E-1,-5.063851476E-1,-1.298252773E-2
9.394300122E0,2.709020674E-1,-3.449357748E-1,1.930734841E-3
9.414196997E0,2.266283184E-1,-1.967352182E-1,1.098521519E-2
9.434085226E0,1.941387206E-1,-1.066564545E-1,5.845466256E-2
9.453972674E0,1.685731262E-1,-2.083862014E-2,8.615072072E-2
9.473867205E0,1.557903290E-1,7.296846062E-2,1.005313694E-1
9.493729393E0,1.280276924E-1,1.619819999E-1,9.733566642E-2
9.513621945E0,9.127715230E-2,2.152436525E-1,9.307473898E-2
9.533551007E0,7.050511241E-2,2.589847744E-1,9.413997084E-2
9.553420382E0,6.251586229E-2,3.069202602E-1,1.133807376E-1
9.573339862E0,4.167724028E-2,3.219000995E-1,1.400115639E-1
9.593218247E0,-1.318225823E-2,2.675066292E-1,1.538596004E-1
9.613098351E0,-7.023879886E-2,1.635798514E-1,1.495986581E-1
9.632975226E0,-8.408683538E-2,5.485950038E-2,1.565226763E-1
9.652881112E0,-7.396712154E-2,-2.403431945E-2,1.693054736E-1
9.672780799E0,-7.769543678E-2,-7.097115368E-2,1.831535101E-1
9.692697257E0,-1.128481254E-1,-7.310161740E-2,1.954036802E-1
9.712572205E0,-1.347519755E-1,-1.071890723E-2,1.895449013E-1
9.732451164E0,-1.053914949E-1,6.977276504E-2,1.884796619E-1
9.752322778E0,-6.651048362E-2,8.947957307E-2,1.959362924E-1
9.772241580E0,-3.934704512E-2,4.473978654E-2,1.980667710E-1
9.792120799E0,-4.127778113E-3,-2.936048433E-2,1.890122890E-1
9.812009914E0,4.434032366E-2,-1.151783243E-1,1.549248248E-1
9.831908976E0,9.500546753E-2,-1.892785877E-1,1.176416725E-1
9.851811789E0,1.600512564E-1,-2.409423888E-1,9.200949967E-2
9.871677570E0,2.469343245E-1,-2.814878225E-1,4.354140162E-2
9.891562362E0,2.740977705E-1,-1.503310055E-1,-2.720338702E-1
9.911465174E0,2.448038608E-1,-8.694964647E-2,-4.084502757E-1
9.931371268E0,4.153077304E-1,-3.928712606E-1,-1.419423074E-1
9.951247257E0,5.970631242E-1,-5.799527764E-1,-2.112490237E-1
9.971157518E0,4.947341681E-1,-5.959312916E-1,-3.375457227E-1
9.991028976E0,3.556546867E-1,-5.266911387E-1,-2.400103211E-1
1.001090294E1,3.487306535E-1,-2.756290436E-1,-1.872812808E-1
1.003081689E1,2.799565494E-1,-3.202356771E-2,-1.414096802E-1
1.005071679E1,1.621817350E-1,1.033276021E-1,-1.339530498E-1
1.007058642E1,7.796174288E-2,1.214365661E-1,-1.729006320E-1
1.009052007E1,1.557903271E-2,2.603163198E-2,-1.888791323E-1
1.011037387E1,-2.170412242E-2,-1.141130850E-1,-2.000640780E-1
1.013025236E1,-1.744319126E-2,-2.548570037E-1,-2.011293173E-1
1.015017137E1,1.185071748E-2,-3.582511842E-1,-1.819551140E-1
1.017004924E1,6.677679718E-2,-3.918060362E-1,-1.350182891E-1
1.018992059E1,1.322886199E-1,-3.950017095E-1,-2.736317366E-2
1.020982080E1,1.648448110E-1,-3.694361150E-1,9.200949967E-2
1.022973101E1,2.069215178E-1,-3.224993050E-1,1.384137124E-1
1.024959913E1,2.826196253E-1,-4.072518945E-1,1.123155057E-1
1.026950335E1,3.284246624E-1,-6.178351641E-1,5.126433913E-3
1.028937991E1,3.273594379E-1,-7.787519097E-1,-1.414096802E-1
1.030927924E1,3.220332563E-1,-8.294170499E-1,-2.634454370E-1
1.032916163E1,2.906088829E-1,-7.941977978E-1,-3.578517139E-1
1.034905674E1,2.356828004E-1,-7.212293148E-1,-4.297549427E-1
1.036897309E1,2.218347788E-1,-6.897383928E-1,-5.075835586E-1
1.038886012E1,2.416081727E-1,-8.065145612E-1,-6.274888515E-1
1.040875741E1,2.927393615E-1,-1.083674908E0,-8.119072914E-1
1.042865106E1,3.886769116E-1,-1.518556237E0,-1.102982163E0
1.044858976E1,5.571168661E-1,-2.144846678E0,-1.464828610E0
1.046842174E1,7.628399730E-1,-2.767941475E0,-1.864623785E0
1.048831038E1,9.957931638E-1,-3.171398401E0,-2.373072863E0
1.050821794E1,1.240929842E0,-3.249227047E0,-2.923665285E0
1.052810523E1,1.470154762E0,-2.800963640E0,-3.508411646E0
1.054797002E1,1.691323757E0,-1.644919515E0,-4.212463856E0
1.056787517E1,1.809631228E0,1.193061024E-1,-5.044477463E0
1.058775221E1,1.683867097E0,2.339251757E0,-6.044398308E0
1.060765960E1,1.092795968E0,4.040628433E0,-6.689863205E0
1.062757486E1,-8.137714267E-1,3.295498133E0,-5.944200039E0
1.064744205E1,-4.111999035E0,-1.706370115E-1,-4.160799980E0
1.066735116E1,-6.206646919E0,-2.778061152E0,-2.892773390E0
1.068724523E1,-6.136807442E0,-3.494430304E0,-1.160504818E0
1.070712908E1,-5.592673302E0,-2.757289171E0,1.436267018E0
1.072700559E1,-6.177885532E0,7.242918611E-1,1.899976254E0
1.074691887E1,-7.543447495E0,3.369065762E0,7.924002409E-1
1.076677809E1,-8.565205574E0,2.344045162E0,-1.718354076E-1
1.078668382E1,-1.014501286E1,-1.231808782E0,-1.797580742E-3
1.080658413E1,-1.158940220E1,-3.871789217E0,1.319557428E0
1.082647663E1,-1.054740524E1,-3.193768263E0,2.572071791E0
1.084638783E1,-8.183586121E0,-1.056444883E0,3.626386166E0
1.086625773E1,-6.433741093E0,3.996621072E-1,4.568185329E0
1.088614997E1,-5.018046379E0,1.364430308E0,4.820778847E0
1.090602455E1,-3.529916048E0,1.689526200E0,4.705667019E0
1.092590257E1,-1.994915128E0,1.222088575E0,4.624642372E0
1.094579820E1,-5.691007376E-1,6.304848194E-1,4.437028408E0
1.096568809E1,6.290866733E-1,4.071853161E-1,4.133769989E0
1.098558642E1,1.781935096E0,5.308189392E-1,3.726052046E0
1.100552335E1,2.879924059E0,3.842162490E-1,3.377454519E0
1.102537903E1,3.677850246E0,-3.513271809E-1,3.170133591E0
1.104527038E1,3.997087240E0,-1.274484754E0,3.065074921E0
1.106517325E1,3.765798569E0,-2.056898355E0,2.959550142E0
1.108506424E1,3.264739513E0,-2.814279079E0,2.765544653E0
1.110493153E1,2.963611364E0,-3.545028925E0,2.443111897E0
1.112485283E1,2.919337749E0,-4.136699200E0,2.047577620E0
1.114473283E1,2.844238758E0,-4.629702568E0,1.720351338E0
1.116464653E1,2.470608234E0,-4.847143173E0,1.327546597E0
1.118455132E1,1.880003095E0,-4.602539062E0,8.009220958E-1
1.120439695E1,1.477078795E0,-4.023118973E0,2.780258060E-1
1.122430226E1,1.303845167E0,-3.482646227E0,7.256899960E-3
1.124420085E1,1.231342793E0,-3.057884455E0,-7.909355313E-2
1.126408622E1,1.130611658E0,-2.587783813E0,-1.840855777E-1
1.128395476E1,9.728240371E-1,-2.107030869E0,-3.125127256E-1
1.130384674E1,8.555818200E-1,-1.789325118E0,-3.791563809E-1
1.132375283E1,7.996571064E-1,-1.734465718E0,-3.375457227E-1
1.134362194E1,7.585790753E-1,-1.773879290E0,-3.066539466E-1
1.136355247E1,7.234264016E-1,-1.750976801E0,-3.039908707E-1
1.138342648E1,7.117088437E-1,-1.614493847E0,-2.522605062E-1
1.140331194E1,7.181001902E-1,-1.402379274E0,-1.952705234E-1
1.142321450E1,7.207632661E-1,-1.210504174E0,-1.718354076E-1
1.144310424E1,7.473941445E-1,-1.066031933E0,-1.478010863E-1
1.146297882E1,7.953296304E-1,-9.216262698E-1,-1.222354919E-1
1.148288408E1,7.942643762E-1,-7.542515397E-1,-1.046591476E-1
1.150277825E1,7.234264016E-1,-6.135076284E-1,-8.921326697E-2
1.152268262E1,6.328150034E-1,-5.336151719E-1,-3.801550344E-2
1.154258616E1,5.507254601E-1,-4.525908828E-1,3.501953557E-2
1.156242278E1,4.670380950E-1,-3.203688264E-1,8.348763734E-2
1.158231445E1,3.822855055E-1,-1.940721422E-1,8.188978583E-2
1.160225382E1,3.023264408E-1,-1.541258991E-1,6.484606117E-2
1.162210642E1,2.629128397E-1,-1.764957905E-1,9.041165560E-2
1.164200450E1,2.394111156E-1,-1.439396143E-1,1.026618332E-1
1.166190512E1,1.685731262E-1,-6.298190355E-2,9.840089828E-2
1.168177632E1,7.636389136E-2,1.697715186E-2,1.058575287E-1
1.170168637E1,5.991935730E-3,4.580501840E-2,1.245656833E-1
1.172158898E1,-3.395430371E-2,4.527240247E-2,1.250983030E-1
1.174146705E1,-4.467320815E-2,5.272903293E-2,1.266961545E-1
1.176135533E1,-4.094489291E-2,8.042509109E-2,1.245656833E-1
1.178125752E1,-4.094489291E-2,8.308817446E-2,1.368158609E-1
1.180111986E1,-5.479292199E-2,5.858781561E-2,1.634466946E-1
1.182105163E1,-7.663019747E-2,5.539211631E-2,1.852839738E-1
1.184090872E1,-7.023879886E-2,7.243584841E-2,2.039921284E-1
1.186083309E1,-7.556496561E-2,7.403369248E-2,2.247641683E-1
1.188071846E1,-1.053914949E-1,7.083799690E-2,2.236989290E-1
1.190061929E1,-1.005979404E-1,3.621792421E-2,2.066552043E-1
1.192051799E1,-5.745600536E-2,-4.214328155E-2,2.119813710E-1
1.194035846E1,-8.921326138E-3,-1.103847697E-1,2.279598713E-1
1.196032898E1,4.394086078E-3,-1.279611140E-1,2.226337045E-1
1.198014497E1,-3.022598661E-2,-9.706936032E-2,1.735664010E-1
1.200005226E1,-4.680367559E-2,-5.386084318E-2,1.320223212E-1
1.201993955E1,-7.856093347E-3,6.857437547E-3,1.320223212E-1
1.203985866E1,3.954677656E-2,7.776200771E-2,1.314896941E-1
1.205973059E1,7.157034427E-2,9.959928691E-2,1.112502739E-1
1.207962320E1,7.849435508E-2,6.284874678E-2,7.656362653E-2
1.209950403E1,8.062482625E-2,-1.604507305E-2,3.715000302E-2
1.211937804E1,8.914668858E-2,-8.641702682E-2,1.424749196E-2
1.213929366E1,1.136470512E-1,-1.380808353E-1,3.661738336E-2
1.215915299E1,1.205710620E-1,-1.497983932E-1,5.366111174E-2
1.217907304E1,9.873378277E-2,-1.284937263E-1,2.916075476E-2
1.219894038E1,9.180977196E-2,-1.594520658E-1,-1.671084389E-2
1.221885616E1,1.285603046E-1,-2.724333405E-1,-3.588503599E-2
1.223875658E1,1.595186442E-1,-3.902081847E-1,-3.908073530E-2
1.225864179E1,1.653774232E-1,-4.520582557E-1,-4.760260135E-2
1.227856622E1,1.978670359E-1,-4.728302956E-1,-3.481980413E-2
1.229840403E1,2.421407849E-1,-4.898740351E-1,-3.268933669E-2
1.231831773E1,2.464017123E-1,-5.031894445E-1,-1.089200750E-1
1.233820564E1,2.229000032E-1,-5.031894445E-1,-2.773600519E-1
1.235809653E1,2.058562785E-1,-4.765586257E-1,-5.230293870E-1
1.237798247E1,1.685731262E-1,-4.189694524E-1,-8.023201823E-1
1.239788523E1,1.115165800E-1,-3.475988507E-1,-1.128015161E0
1.241774606E1,3.155753016E-2,-3.710339665E-1,-1.538396239E0
1.243767408E1,-1.000653282E-1,-6.780208349E-1,-2.055433750E0
1.245755200E1,-2.631791234E-1,-1.229145765E0,-2.689713478E0
1.247743705E1,-3.857475221E-1,-1.722681522E0,-3.356482744E0
1.249731372E1,-3.378120363E-1,-2.012691259E0,-3.956608295E0
1.251722038E1,-1.576544940E-1,-2.030267477E0,-4.541354656E0
1.253709799E1,1.109839678E-1,-1.497784257E0,-5.152665138E0
1.255701314E1,5.805519819E-1,-4.290891886E-1,-5.758716106E0
1.257689059E1,1.249984384E0,7.994573712E-1,-6.407909393E0
1.259681080E1,2.040986538E0,2.007231951E0,-7.291586399E0
1.261666387E1,2.821802378E0,3.130786419E0,-8.180124283E0
1.263657044E1,3.048896551E0,2.845636845E0,-7.765481949E0
1.265646184E1,1.670551658E0,-1.082609653E0,-4.699608326E0
1.267633627E1,-9.795483351E-1,-5.860912323E0,-1.408770680E-1
1.269626059E1,-2.566279411E0,-4.800805569E0,2.049175501E0
1.271612476E1,-3.272462368E0,1.209039465E-1,2.526266575E0
1.273602830E1,-5.066048622E0,2.192183018E0,3.741497755E0
1.275589872E1,-7.099977970E0,1.764691710E0,3.377454519E0
1.277581273E1,-8.758146286E0,1.795583367E-1,1.602576494E0
1.279570012E1,-1.044081497E1,-2.417746067E0,7.908023596E-1
1.281558215E1,-1.120458698E1,-4.091892719E0,4.688356817E-1
1.283549023E1,-1.197155476E1,-4.629169941E0,1.213433623E0
1.285535840E1,-1.138953781E1,-3.988498688E0,2.578463078E0
1.287528184E1,-8.928716660E0,-2.333526134E0,3.691897869E0
1.289517023E1,-6.384141445E0,-1.104979515E0,4.870911121E0
1.291504252E1,-4.807529926E0,-3.699687421E-1,5.562713623E0
1.293495986E1,-3.484643459E0,3.911402524E-1,5.628824234E0
1.295484127E1,-1.732135415E0,1.160305023E0,5.156593323E0
1.297475580E1,1.119959354E0,2.382460117E0,3.446228504E0
1.299464570E1,2.277135372E0,6.592460871E-1,3.989297628E0
1.301455038E1,2.505760908E0,-5.959312916E-1,4.397082329E0
1.303438695E1,4.086100578E0,1.115498662E0,2.305031061E0
1.305430153E1,4.977301121E0,8.847426176E-1,2.207495689E0
1.307417179E1,5.017780304E0,-1.860828996E-1,2.408425331E0
1.309407747E1,4.799807072E0,-9.775510430E-1,2.115818977E0
1.311396653E1,4.388294220E0,-1.929003835E0,2.308226824E0
1.313385715E1,3.947553873E0,-2.495042086E0,2.467079639E0
1.315375304E1,3.499290466E0,-2.573935986E0,2.338119984E0
1.317363038E1,3.016939640E0,-2.530727386E0,2.157429695E0
1.319354700E1,2.616611719E0,-2.375669479E0,1.903171897E0
1.321340726E1,2.392779589E0,-2.213088274E0,1.596185088E0
1.323331564E1,2.234459400E0,-2.336721897E0,1.374416947E0
1.325319564E1,2.011692524E0,-2.709819555E0,1.161769748E0
1.327310648E1,1.694519401E0,-3.045634270E0,8.601090908E-1
1.329298168E1,1.335269570E0,-3.202822924E0,4.886090755E-1
1.331285934E1,1.099187374E0,-3.239107370E0,1.900775135E-1
1.333276679E1,1.025086999E0,-3.180452824E0,2.862813696E-2
1.335269434E1,1.013902068E0,-3.028590679E0,-6.091801450E-2
1.337256898E1,9.200950265E-1,-2.750365019E0,-1.525946259E-1
1.339243528E1,7.543181181E-1,-2.350569725E0,-2.245644331E-1
1.341233340E1,6.679676771E-1,-1.901773810E0,-2.069880962E-1
1.343223689E1,6.914027929E-1,-1.449848771E0,-1.179745570E-1
1.345209788E1,7.133066654E-1,-9.839424491E-1,-2.842840552E-2
1.347198570E1,6.695655584E-1,-6.017900705E-1,4.993279651E-2
1.349189658E1,5.944000483E-1,-3.907407820E-1,9.733566642E-2
1.351180335E1,5.890738368E-1,-3.033251166E-1,1.015966013E-1
1.353166611E1,6.157712936E-1,-3.166405261E-1,9.413997084E-2
1.355159887E1,5.826824903E-1,-3.347494900E-1,6.431344151E-2
1.357150934E1,4.957993925E-1,-2.974663079E-1,1.098521519E-2
1.359133616E1,3.780245781E-1,-2.233660519E-1,-2.256962471E-2
1.361125645E1,2.730325460E-1,-1.237001866E-1,-1.884130947E-2
1.363111234E1,2.122476846E-1,-4.860125482E-3,9.387366474E-3
1.365101390E1,1.466692686E-1,1.364164054E-1,9.919982404E-3
1.367089395E1,6.091801450E-2,2.541912198E-1,8.655018173E-4
1.369081265E1,4.926702939E-3,3.010614812E-1,-1.458037738E-2
1.371071000E1,-2.489982173E-2,2.797568142E-1,-1.031944528E-2
1.373058208E1,-3.555215150E-2,2.589847744E-1,-1.264964230E-3
1.375051546E1,-2.223674022E-2,2.723001838E-1,1.311568171E-2
1.377038791E1,-4.127778113E-3,3.549223244E-1,6.191667169E-3
1.379026546E1,1.611164957E-2,4.774906933E-1,-1.031944528E-2
1.381017291E1,4.434032366E-2,5.905385613E-1,-1.085206121E-2
1.383006479E1,7.157034427E-2,6.315500140E-1,1.424749196E-2
1.384995385E1,7.157034427E-2,5.734282732E-1,9.919982404E-3
1.386984864E1,5.985277891E-2,3.959338069E-1,-1.564561017E-2
1.388972687E1,4.007939249E-2,1.960694492E-1,-2.736317366E-2
1.390961260E1,1.717688330E-2,8.149032295E-2,-4.280905053E-2
1.392950562E1,1.198387123E-3,2.549901605E-2,-3.322195634E-2
1.394938286E1,-1.531272475E-2,1.218360290E-2,-9.786828421E-3
1.396927796E1,-4.307536036E-2,2.762948163E-2,-3.395430278E-3
1.398918500E1,-7.769543678E-2,5.592473224E-2,-2.789578959E-2
1.400908281E1,-9.740224481E-2,5.326165259E-2,-5.452661589E-2
1.402896458E1,-8.408683538E-2,7.390053943E-3,-4.227643460E-2
1.404882864E1,-6.224955618E-2,-3.681711480E-2,-1.884130947E-2
1.406874020E1,-6.171693653E-2,-7.629731297E-2,7.789516356E-3
1.408863447E1,-4.680367559E-2,-7.310161740E-2,2.463351469E-3
1.410853552E1,-9.986559860E-3,-1.764292270E-2,-3.961335123E-2
1.412841958E1,4.274247587E-2,3.129122080E-3,-5.825493112E-2
1.414830088E1,9.873378277E-2,-6.884068251E-2,-3.908073530E-2
1.416821874E1,1.504641622E-1,-1.599846780E-1,-4.547213390E-2
1.418807864E1,2.213021666E-1,-2.334857583E-1,-9.613727778E-2
1.420796734E1,3.204354048E-1,-3.224993050E-1,-1.398118287E-1
1.422785151E1,4.340158701E-1,-3.891429305E-1,-1.760963351E-1
1.424777192E1,4.910058379E-1,-4.280239344E-1,-2.752295732E-1
1.426764734E1,5.037886500E-1,-5.421370268E-1,-4.393420517E-1
1.428753474E1,5.576494932E-1,-7.856759429E-1,-6.152386665E-1
1.430740947E1,6.141734123E-1,-1.193460464E0,-8.881380558E-1
1.432731505E1,6.722286344E-1,-1.783998966E0,-1.251116157E0
1.434723427E1,8.310815096E-1,-2.332460880E0,-1.569887161E0
1.436710078E1,1.081078410E0,-2.515814066E0,-1.918418050E0
1.438700312E1,1.357173443E0,-2.417213440E0,-2.342713833E0
1.440688067E1,1.738260508E0,-2.249306202E0,-2.816009998E0
1.442679333E1,2.329331636E0,-1.752574682E0,-3.440170050E0
1.444668395E1,2.966274500E0,-6.402050257E-1,-4.349479675E0
1.446659343E1,3.466734409E0,9.998543262E-1,-5.546601772E0
1.448649005E1,3.593097448E0,2.744373083E0,-6.833203316E0
1.450634468E1,3.004090309E0,3.728781700E0,-7.326273441E0
1.452623322E1,9.302147627E-1,3.252822161E0,-6.212838650E0
1.454611666E1,-2.870070696E0,2.454430103E0,-4.082971573E0
1.456600161E1,-5.101733685E0,3.172863245E0,-2.308093548E0
1.458590166E1,-4.663589954E0,3.430849314E0,-8.290175796E-1
1.460579437E1,-4.067725658E0,1.477944255E0,1.225750327E0
1.462568140E1,-4.846943378E0,-1.259504914E0,2.221343756E0
1.464559880E1,-6.162439823E0,-2.700765133E0,2.066552043E-1
1.466549317E1,-6.745521545E0,-3.863267183E0,-2.870403528E0
1.468538187E1,-8.664339066E0,-6.405113220E0,-4.067525864E0
1.470526145E1,-1.225623798E1,-7.855960369E0,-2.733920574E0
1.472514755E1,-1.350076294E1,-6.630010128E0,-8.694964647E-1
1.474507192E1,-1.227168369E1,-4.048218250E0,2.386122048E-1
1.476494989E1,-1.021585083E1,-2.073409557E0,1.057310343E0
1.478480750E1,-8.300827980E0,-1.208373666E0,2.228267670E0
1.480471911E1,-6.243463993E0,-5.687678456E-1,3.191970825E0
1.482464276E1,-4.026181221E0,4.900071770E-2,3.743628263E0
1.484453994E1,-1.872812867E0,3.187043965E-1,3.925383806E0
1.486439099E1,3.886769116E-1,3.916728795E-1,3.755878448E0
1.488428265E1,2.346375465E0,8.985906243E-1,3.356149912E0
1.490418385E1,3.739633799E0,1.889989734E0,2.786316633E0
1.492407406E1,4.695879936E0,2.642044306E0,2.313552856E0
1.494394796E1,5.342410088E0,2.680392504E0,2.100373268E0
1.496385057E1,5.654723167E0,1.969882131E0,2.143049002E0
1.498374322E1,5.548665524E0,6.896718144E-1,2.452698946E0
1.500362416E1,5.093478203E0,-5.794202089E-1,2.737315893E0
1.502354302E1,4.515722752E0,-1.416759968E0,2.860416889E0
1.504343093E1,4.053611279E0,-1.896980286E0,2.931854248E0
1.506330552E1,3.558943510E0,-2.169879675E0,2.947832584E0
1.508321406E1,2.977992058E0,-2.281862259E0,2.825796843E0
1.510308729E1,2.545174599E0,-2.311688900E0,2.552897453E0
1.512298224E1,2.295776844E0,-2.493976831E0,2.267215252E0
1.514288291E1,1.992984414E0,-2.824398756E0,1.988457203E0
1.516276916E1,1.617756128E0,-3.162876606E0,1.628142118E0
1.518266510E1,1.270290375E0,-3.347295046E0,1.137269378E0
1.520258843E1,1.081611037E0,-3.394764423E0,6.634404659E-1
1.522243494E1,1.058641911E0,-3.404351473E0,4.001281559E-1
1.524231244E1,1.055446148E0,-3.298826933E0,2.540580630E-1
1.526222036E1,9.536498785E-1,-2.997632265E0,1.357506365E-1
1.528212041E1,8.151029944E-1,-2.478530884E0,5.632419512E-2
1.530198546E1,7.362091541E-1,-1.844251275E0,4.061201122E-3
1.532189958E1,7.500572205E-1,-1.308572173E0,-1.997311920E-4
1.534178171E1,7.969940305E-1,-9.898678064E-1,6.218297780E-2
1.536169104E1,7.884055972E-1,-8.161016703E-1,1.336201727E-1
1.538156364E1,7.101109624E-1,-6.955971718E-1,1.618488431E-1
1.540147843E1,5.725627542E-1,-6.343462467E-1,1.421420276E-1
1.542134489E1,4.622445405E-1,-6.375419497E-1,1.543922126E-1
1.544123078E1,4.318854213E-1,-6.060510278E-1,2.306229472E-1
1.546114281E1,3.977313936E-1,-4.472647011E-1,2.817541361E-1
1.548104177E1,3.081852198E-1,-2.175072730E-1,2.988644540E-1
1.550092979E1,2.479995638E-1,1.697715186E-2,2.663082480E-1
1.552080828E1,2.090519816E-1,1.497318149E-1,2.476666719E-1
1.554072302E1,1.429409534E-1,1.997977644E-1,2.487319112E-1
1.556063229E1,6.997249275E-2,2.334191799E-1,2.412752807E-1
1.558053005E1,2.796236658E-3,2.648435533E-1,2.391448170E-1
1.560038072E1,-5.426030606E-2,3.245631754E-1,2.221010923E-1
1.562024578E1,-8.728253096E-2,3.730312884E-1,2.226337045E-1
1.564018104E1,-1.048588753E-1,3.964664042E-1,2.306229472E-1
1.566004062E1,-1.149785891E-1,4.119788706E-1,2.258294076E-1
1.567994651E1,-1.139133573E-1,4.444684684E-1,2.210358530E-1
1.569983885E1,-8.781515062E-2,4.983293116E-1,2.226337045E-1
1.571972781E1,-4.360797629E-2,5.606454611E-1,2.503297627E-1
1.573959354E1,-2.170412242E-2,6.081148982E-1,2.833519876E-1
1.575953010E1,-4.733629152E-2,6.161041260E-1,2.615146935E-1
1.577939333E1,-8.994561434E-2,5.537214279E-1,2.077204436E-1
1.579926234E1,-9.846747667E-2,4.189028740E-1,1.778273433E-1
1.581918812E1,-8.674991131E-2,2.973331809E-1,1.549248248E-1
1.583907312E1,-9.473916143E-2,2.616478503E-1,9.946613014E-2
1.585894161E1,-1.250983030E-1,2.707023323E-1,3.661738336E-2
1.587884359E1,-1.288266182E-1,2.797568142E-1,1.398118329E-3
1.589873104E1,-1.112502739E-1,2.797568142E-1,-1.990654133E-2
1.591866380E1,-1.075219586E-1,2.632457018E-1,-2.896102332E-2
1.593855682E1,-8.195636421E-2,1.997977644E-1,-3.322195634E-2
1.595839645E1,-2.330197208E-2,1.305576265E-1,-4.600474983E-2
1.597831333E1,2.463351376E-2,1.284271628E-1,-4.813521728E-2
1.599818640E1,5.825493112E-2,1.539927423E-1,-3.748288751E-2
1.601806630E1,9.180977196E-2,1.075885370E-1,-2.470009029E-2
1.603798124E1,1.376147866E-1,-5.279561132E-2,-1.990654133E-2
1.605787010E1,1.834863871E-1,-2.639114857E-1,-4.866783321E-2
1.607776635E1,2.378132790E-1,-4.210999310E-1,-9.560466558E-2
1.609763338E1,3.097830713E-1,-4.824174047E-1,-1.238333359E-1
1.611755250E1,3.828181326E-1,-5.250933170E-1,-1.531272531E-1
1.613743109E1,4.478639066E-1,-6.071162224E-1,-2.085859478E-1
1.615731244E1,5.171040297E-1,-6.652380228E-1,-3.194367588E-1
1.617724619E1,6.098458767E-1,-6.471290588E-1,-4.175047576E-1
1.619708666E1,6.791526079E-1,-5.799527764E-1,-4.793548584E-1
1.621697380E1,7.143719196E-1,-4.099149704E-1,-5.859447122E-1
1.623687989E1,7.468615174E-1,-1.621151567E-1,-7.868742943E-1
1.625676609E1,8.017875552E-1,1.214365661E-1,-1.080013156E0
1.627666963E1,8.241574764E-1,5.526562333E-1,-1.533602715E0
1.629658072E1,8.092442155E-1,8.447297812E-1,-1.928537846E0
1.631647671E1,9.872713089E-1,6.832804084E-1,-2.134860039E0
1.633632989E1,1.356640816E0,2.765611112E-1,-2.311821938E0
1.635622822E1,1.757967353E0,-3.468665108E-2,-2.548436880E0
1.637612666E1,2.143847942E0,-8.748225868E-2,-2.892240763E0
1.639602880E1,2.605959415E0,1.981999129E-1,-3.349558592E0
1.641592724E1,3.240771770E0,9.406673312E-1,-3.916129589E0
1.643581531E1,4.012533188E0,2.244379520E0,-4.717251301E0
1.645568109E1,4.739554405E0,3.792762280E0,-5.731020451E0
1.647558260E1,5.088684559E0,4.922708035E0,-6.588599205E0
1.649547968E1,4.758728981E0,5.120441914E0,-6.838596344E0
1.651535203E1,3.879844904E0,3.746424437E0,-6.306645393E0
1.653525802E1,2.501500130E0,-2.281595916E-1,-5.231026649E0
1.655516880E1,2.751629949E-1,-5.830553055E0,-3.796224117E0
1.657504312E1,-2.265684128E0,-8.935773849E0,-2.327267885E0
1.659492921E1,-4.196685314E0,-7.772805691E0,-1.164765716E0
1.661483197E1,-5.519105434E0,-5.624829769E0,2.332860380E-1
1.663472354E1,-6.786532879E0,-4.989484787E0,1.047190666E0
1.665462677E1,-8.709611893E0,-5.696200371E0,5.210986733E-1
1.667453724E1,-1.034913826E1,-7.207300186E0,1.480008066E-1
1.669440265E1,-1.037896442E1,-7.869276047E0,1.195857167E0
1.671426489E1,-1.080698872E1,-6.409906387E0,2.718674421E0
1.673416958E1,-1.073555183E1,-3.254553080E0,3.647690773E0
1.675406411E1,-9.266062737E0,-2.958684862E-1,3.694028378E0
1.677396291E1,-8.151562691E0,1.174685717E0,3.751617670E0
1.679384598E1,-7.261493683E0,1.709832191E0,3.537905216E0
1.681373776E1,-5.843135834E0,1.563229442E0,3.121598721E0
1.683361849E1,-3.940363646E0,6.672353148E-1,3.163209438E0
1.685354598E1,-1.687861681E0,-3.251623809E-1,3.590101480E0
1.687343541E1,6.018566489E-1,-5.207657814E-1,3.762802601E0
1.689328354E1,2.615546465E0,1.059906855E-1,3.610873699E0
1.691321052E1,4.160733700E0,7.904028893E-1,3.345497370E0
1.693309406E1,5.038552284E0,6.918022633E-1,3.103489876E0
1.695298572E1,5.249135494E0,-3.518597782E-1,3.068869829E0
1.697285567E1,5.035889149E0,-1.663028479E0,3.099228859E0
1.699277224E1,4.853068352E0,-2.557358265E0,3.003823996E0
1.701267166E1,4.773642063E0,-2.982186317E0,2.859351635E0
1.703259854E1,4.478372574E0,-3.345697165E0,2.768207788E0
1.705241291E1,3.963532448E0,-3.623922825E0,2.537984371E0
1.707232927E1,3.441168785E0,-3.719860315E0,2.137123823E0
1.709223885E1,3.036113739E0,-3.932507515E0,1.861561298E0
1.711210843E1,2.682190180E0,-4.348281384E0,1.729405761E0
1.713199624E1,2.324005604E0,-4.632365704E0,1.544987321E0
1.715187468E1,1.984462500E0,-4.503405571E0,1.317426920E0
1.717177036E1,1.640725136E0,-4.043957233E0,1.075419307E0
1.719165468E1,1.259638071E0,-3.567398787E0,9.640358686E-1
1.721160307E1,9.483237267E-1,-3.144234896E0,9.272187948E-1
1.723143817E1,7.798837423E-1,-2.696504354E0,8.110417724E-1
1.725132979E1,7.063826323E-1,-2.304764748E0,6.596455574E-1
1.727123593E1,6.360107064E-1,-2.154433727E0,5.248270035E-1
1.729114416E1,5.464645624E-1,-2.223740578E0,3.942693770E-1
1.731102593E1,5.133757591E-1,-2.352700233E0,2.924730480E-1
1.733092760E1,5.592473149E-1,-2.386854410E0,2.252967805E-1
1.735079989E1,5.928021669E-1,-2.208827257E0,1.421420276E-1
1.737070796E1,5.475297570E-1,-1.825609684E0,3.608476743E-2
1.739060479E1,4.526574612E-1,-1.341594458E0,-3.481980413E-2
1.741045848E1,3.758940995E-1,-9.088435173E-1,-1.458037738E-2
1.743036224E1,3.257615864E-1,-5.746266246E-1,3.768261895E-2
1.745026348E1,2.543909550E-1,-3.475988507E-1,7.549838722E-2
1.747015427E1,2.005301118E-1,-2.238986641E-1,1.042596847E-1
1.749003895E1,1.957365721E-1,-1.348851323E-1,1.096524224E-1
1.750992312E1,2.133129090E-1,-3.095833398E-2,1.288266182E-1
1.752980640E1,2.047910541E-1,1.065233052E-1,1.543922126E-1
1.754971874E1,1.680405140E-1,2.344844192E-1,1.943384558E-1
1.756960057E1,1.264298409E-1,3.272262812E-1,2.236989290E-1
1.758952088E1,9.180977196E-2,3.810205460E-1,2.231663167E-1
1.760939302E1,4.700340703E-2,3.879445493E-1,2.018616647E-1
1.762927354E1,2.356828004E-2,3.293567300E-1,1.858165860E-1
1.764917958E1,1.731003635E-3,2.653761804E-1,1.559900641E-1
1.766907770E1,-2.862813696E-2,2.611152530E-1,9.786828607E-2
1.768896609E1,-4.786890745E-2,2.770937383E-1,7.443315536E-2
1.770886124E1,-5.426030606E-2,3.234979510E-1,3.448691964E-2
1.772874802E1,-4.733629152E-2,3.453352451E-1,1.797580719E-2
1.774866208E1,-4.201012850E-2,3.464004695E-1,1.691057347E-2
1.776853359E1,-2.543243766E-2,3.416069150E-1,2.596505545E-2
1.778842484E1,-1.264964230E-2,3.368133605E-1,1.205044892E-2
1.780829395E1,-1.637795754E-2,3.021267056E-1,-9.254211560E-3
1.782820979E1,-2.436720580E-2,2.440715134E-1,-2.789578959E-2
1.784809557E1,-3.448691964E-2,1.822214276E-1,-3.854811937E-2
1.786795921E1,-3.555215150E-2,1.262966841E-1,-3.961335123E-2
1.788788302E1,-1.744319126E-2,9.480573982E-2,-3.961335123E-2
1.790776817E1,1.025286783E-2,7.616416365E-2,-1.458037738E-2
1.792765942E1,2.410089783E-2,9.001219273E-2,-5.525896326E-3
1.794754958E1,1.664426550E-2,1.097190008E-1,-3.748288751E-2
1.796744364E1,1.983996481E-2,5.485950038E-2,-5.452661589E-2
1.798730348E1,3.528584540E-2,-4.587159678E-2,-5.932016298E-2
1.800723552E1,2.942706272E-2,-1.242327988E-1,-7.157034427E-2
1.802711072E1,1.025286783E-2,-1.892785877E-1,-6.677679718E-2
1.804699645E1,1.238333434E-2,-2.159094214E-1,-6.358109415E-2
1.806687229E1,3.528584540E-2,-2.015287727E-1,-6.677679718E-2
1.808675489E1,4.593817517E-2,-1.908764392E-1,-6.251586229E-2
1.810665020E1,3.848154470E-2,-2.148441821E-1,-6.145063043E-2
1.812655583E1,2.995967865E-2,-2.836183012E-1,-8.175663650E-2
1.814644724E1,2.303566411E-2,-3.763601482E-1,-1.185071766E-1
1.816634067E1,4.593817517E-2,-4.387428463E-1,-1.520620137E-1
1.818623416E1,1.312233955E-1,-4.392754734E-1,-1.974010020E-1
1.820612468E1,3.012612164E-1,-4.392754734E-1,-2.586518824E-1
1.822599765E1,4.553205371E-1,-4.749607742E-1,-3.589169383E-1
1.824589208E1,5.619103909E-1,-5.410717726E-1,-5.145075321E-1
1.826579062E1,6.977941990E-1,-6.439333558E-1,-6.456643939E-1
1.828568791E1,8.412011862E-1,-8.107754588E-1,-6.722952127E-1
1.830557317E1,9.179645777E-1,-9.844750166E-1,-6.733604074E-1
1.832548364E1,9.121057987E-1,-1.150251985E0,-7.079805136E-1
1.834536718E1,9.030513167E-1,-1.368291855E0,-7.575803995E-1
1.836524614E1,8.950620294E-1,-1.583069444E0,-8.822792768E-1
1.838515354E1,9.376713634E-1,-1.628874421E0,-1.056045413E0
1.840503640E1,1.043195963E0,-1.499914646E0,-1.237268209E0
1.842492484E1,1.152981639E0,-1.271288991E0,-1.485667229E0
1.844484359E1,1.252647400E0,-9.003216624E-1,-1.868352175E0
1.846475901E1,1.374749780E0,-3.444031477E-1,-2.497305632E0
1.848464421E1,1.517024994E0,4.157072008E-1,-3.468398809E0
1.850452083E1,1.610832095E0,1.553109765E0,-4.771578312E0
1.852439812E1,1.344324112E0,3.149960518E0,-6.408974648E0
1.854426828E1,4.216991365E-1,4.902468681E0,-8.201961517E0
1.856420093E1,-4.987287819E-1,6.077753544E0,-9.235437393E0
1.858407119E1,-6.740927696E-1,5.414712429E0,-8.949754715E0
1.860394630E1,-3.356815577E-1,1.992851257E0,-6.191533566E0
1.862385302E1,-5.905385688E-2,-2.734319925E0,-2.425335884E0
1.864374156E1,-5.834813714E-1,-4.860991001E0,-8.258218765E-1
1.866364401E1,-2.506559849E0,-3.581313372E0,-9.739558697E-1
1.868352166E1,-5.152399063E0,-1.880469203E0,-1.347586393E0
1.870339911E1,-7.403236389E0,-2.710352182E0,-2.245710850E0
1.872328807E1,-8.812473297E0,-6.198324680E0,-2.840510368E0
1.874320750E1,-9.565592766E0,-9.165531158E0,-1.940854549E0
1.876306541E1,-9.680238724E0,-8.474727631E0,2.769605815E-1
1.878297624E1,-9.942485809E0,-4.901003838E0,2.289052725E0
1.880286760E1,-9.634366989E0,-1.384270310E0,3.403552771E0
1.882276729E1,-8.541704178E0,5.031228662E-1,4.050615311E0
1.884268651E1,-7.549839020E0,1.243459821E0,4.433300018E0
1.886258546E1,-6.744456291E0,1.602110505E0,4.280372620E0
1.888241703E1,-5.889007568E0,1.449182987E0,3.819859028E0
1.890232708E1,-4.696146488E0,5.324167609E-1,3.759606838E0
1.892223624E1,-2.784785509E0,-2.942706347E-1,3.932840347E0
1.894211244E1,-6.112440228E-1,-5.368108749E-1,4.231837749E0
1.896201250E1,8.209617734E-1,-8.123733401E-1,4.388027668E0
1.898186848E1,2.307494402E0,-4.648410678E-1,3.843294144E0
1.900176848E1,3.692230701E0,-7.441318631E-1,3.592764616E0
1.902167276E1,4.776371956E0,-1.424749136E0,3.440369844E0
1.904157963E1,5.405258656E0,-2.131531239E0,3.154621124E0
1.906148635E1,5.553991795E0,-3.216204882E0,3.087511301E0
1.908138312E1,5.398334503E0,-4.316790104E0,2.973398209E0
1.910122968E1,5.037487030E0,-4.865252018E0,2.518277407E0
1.912110833E1,4.505070210E0,-4.955863476E0,1.975141764E0
1.914101906E1,3.899551868E0,-4.795479298E0,1.585998774E0
1.916090447E1,3.420929193E0,-4.555602074E0,1.314763904E0
1.918078994E1,3.113409758E0,-4.431968689E0,1.104180574E0
1.920071250E1,2.839977741E0,-4.405271053E0,9.485899806E-1
1.922060224E1,2.451367378E0,-4.236897945E0,7.465286255E-1
1.924052119E1,2.029268980E0,-3.912267923E0,5.163051486E-1
1.926037479E1,1.681736588E0,-3.606346369E0,3.835504651E-1
1.928025916E1,1.384869456E0,-3.316403389E0,3.441368341E-1
1.930014781E1,1.135405302E0,-2.999762774E0,3.398759067E-1
1.932005677E1,9.467258453E-1,-2.633589029E0,2.977991998E-1
1.933991921E1,8.007223606E-1,-2.251436472E0,2.684387267E-1
1.935982833E1,6.977941990E-1,-1.879936576E0,2.641777992E-1
1.937971916E1,6.093133092E-1,-1.528675914E0,2.545906901E-1
1.939962520E1,5.709648728E-1,-1.206243277E0,2.561885417E-1
1.941951520E1,5.885412693E-1,-8.939302564E-1,2.327534109E-1
1.943938724E1,5.757584572E-1,-5.932682157E-1,1.725011766E-1
1.945928145E1,5.219641924E-1,-3.454683721E-1,1.346853971E-1
1.947919593E1,4.904732406E-1,-1.733001024E-1,1.671750098E-1
1.949907593E1,4.601140916E-1,-2.030600421E-2,2.407426685E-1
1.951893234E1,3.870790601E-1,1.444056481E-1,3.047232330E-1
1.953884062E1,2.607823610E-1,2.861482203E-1,3.324192762E-1
1.955874718E1,1.211036816E-1,3.756943643E-1,3.292235732E-1
1.957864343E1,-6.258244161E-3,3.932707310E-1,3.084515333E-1
1.959854567E1,-1.250983030E-1,3.485309184E-1,2.977991998E-1
1.961840599E1,-2.050573528E-1,2.930722237E-1,2.567211688E-1
1.963830281E1,-2.333526164E-1,2.217016220E-1,2.306229472E-1
1.965821052E1,-2.466680259E-1,1.587862968E-1,2.348838747E-1
1.967808364E1,-2.839511633E-1,1.422751844E-1,2.332860380E-1
1.969795942E1,-3.521926701E-1,1.470687389E-1,2.247641683E-1
1.971785380E1,-3.900084496E-1,1.646450758E-1,1.980667710E-1
1.973778036E1,-3.569862247E-1,1.816888005E-1,1.421420276E-1
1.975766489E1,-3.116472363E-1,1.438730359E-1,8.828118443E-2
1.977753687E1,-2.802228630E-1,4.633763805E-2,5.685681105E-2
1.979747791E1,-2.493311018E-1,-4.587159678E-2,2.276935615E-2
1.981731869E1,-2.290916741E-1,-1.034607589E-1,-2.097177505E-2
1.983722447E1,-1.826874614E-1,-1.519288570E-1,-4.547213390E-2
1.985709906E1,-1.128481254E-1,-1.839524209E-1,-7.103772461E-2
1.987700161E1,-6.597787142E-2,-1.717022508E-1,-1.137136221E-1
1.989687755E1,-1.424749196E-2,-1.311568171E-1,-1.446053833E-1
1.991676895E1,6.464632601E-2,-9.067796171E-2,-1.536598653E-1
1.993669401E1,1.338864714E-1,-4.001281410E-2,-1.605838835E-1
1.995658562E1,1.595186442E-1,7.922670804E-3,-1.734332591E-1
1.997648067E1,1.691057384E-1,-2.197043039E-3,-1.835529655E-1
1.999634093E1,1.797580719E-1,-8.641702682E-2,-1.643121988E-1
2.001624916E1,1.643121988E-1,-1.738327146E-1,-1.483336985E-1
2.003611130E1,1.125818118E-1,-2.425402403E-1,-1.611164957E-1
2.005601171E1,6.517894566E-2,-3.267602324E-1,-1.803572625E-1
2.007591791E1,4.913387448E-2,-4.312862158E-1,-1.867486686E-1
2.009579067E1,4.593817517E-2,-5.384086967E-1,-1.883465201E-1
2.011568255E1,7.689651102E-2,-6.162372828E-1,-2.016619295E-1
2.013557979E1,1.386800259E-1,-6.593792439E-1,-2.213687450E-1
2.015546474E1,1.909430176E-1,-6.971949935E-1,-2.219013572E-1
2.017536937E1,1.983996481E-1,-7.302837968E-1,-2.368146181E-1
2.019526062E1,1.797580719E-1,-7.377404571E-1,-2.672403455E-1
2.021515500E1,1.866820902E-1,-6.961297989E-1,-2.730991244E-1
2.023502489E1,2.042584270E-1,-5.708982944E-1,-2.656424940E-1
2.025493026E1,1.749645174E-1,-3.806210756E-1,-3.098496497E-1
2.027479713E1,1.056578010E-1,-2.985315621E-1,-4.366789758E-1
2.029470036E1,8.754883707E-2,-4.189694524E-1,-5.683683753E-1
2.031462937E1,1.531272531E-1,-5.559850335E-1,-6.696321368E-1
2.033447781E1,2.836848795E-1,-4.856131077E-1,-8.210283518E-1
2.035437963E1,4.009270668E-1,-1.583868414E-1,-1.045925617E0
2.037429838E1,4.340158701E-1,3.288241327E-1,-1.333738327E0
2.039417281E1,3.497959077E-1,8.452624083E-1,-1.744119287E0
2.041407125E1,2.607823610E-1,1.237601042E0,-2.326202631E0
2.043396624E1,2.996633649E-1,1.331940770E0,-3.011080980E0
2.045385635E1,4.531900883E-1,1.187468529E0,-3.893226862E0
2.047373395E1,5.741605759E-1,7.818810344E-1,-5.052466869E0
2.049366234E1,4.675707221E-1,-2.127137184E-1,-6.350319862E0
2.051352140E1,-7.822804898E-2,-1.686463594E0,-7.568214417E0
2.053342859E1,-1.073355436E0,-3.290238619E0,-8.049566269E0
2.055329734E1,-2.266749382E0,-4.510862350E0,-7.204237461E0
2.057322729E1,-3.008684158E0,-4.846610546E0,-5.359520435E0
2.059310067E1,-2.352034569E0,-4.246484756E0,-3.498225212E0
2.061298880E1,9.500546753E-2,-2.534988403E0,-2.141784191E0
2.063286849E1,2.518011093E0,3.405416906E-1,-9.313465357E-1
2.065277822E1,2.162489653E0,3.242169857E0,4.288894534E-1
2.067267572E1,-1.592989445E0,5.081028461E0,1.126084447E0
2.069256812E1,-5.976955891E0,3.892428160E0,1.290729523E0
2.071241724E1,-9.447817802E0,-1.079413891E0,1.857833028E0
2.073233244E1,-1.250936413E1,-4.483632565E0,1.978870034E0
2.075222057E1,-1.374756432E1,-4.381303310E0,2.493177891E0
2.077209125E1,-1.290170288E1,-2.764745712E0,3.490435839E0
2.079198276E1,-1.161769772E1,-1.100718617E0,3.857142210E0
2.081190385E1,-1.043655396E1,-6.252917647E-1,4.196685314E0
2.083178427E1,-8.676056862E0,-8.304823041E-1,4.562859058E0
2.085169218E1,-6.488600731E0,-1.295256734E0,4.681166649E0
2.087155885E1,-4.289959908E0,-1.811695099E0,4.599077225E0
2.089153052E1,-1.450181603E0,-9.872047305E-1,3.707343817E0
2.091133671E1,4.398746490E-1,-1.223286986E0,3.654082060E0
2.093125958E1,1.801109314E0,-1.524415016E0,3.247895479E0
2.095113921E1,3.638902664E0,1.316228509E-1,1.518889189E0
2.097103057E1,4.729967594E0,5.974625945E-1,1.500780225E0
2.099089630E1,5.181426525E0,5.100468993E-1,1.661696911E0
2.101080114E1,5.209655285E0,1.566558331E-1,1.670751452E0
2.103070630E1,4.818981171E0,-5.900725126E-1,2.008163929E0
2.105062151E1,4.221518517E0,-1.149186730E0,2.188321590E0
2.107052734E1,3.625054598E0,-1.559101701E0,2.148907900E0
2.109035682E1,3.204553843E0,-2.164553404E0,2.071079254E0
2.111024651E1,2.974796295E0,-2.929990053E0,1.920215726E0
2.113016145E1,2.853825808E0,-3.634575129E0,1.642522693E0
2.115005177E1,2.712549210E0,-3.983705282E0,1.283272862E0
2.116994026E1,2.523869991E0,-3.879778385E0,9.139033556E-1
2.118983182E1,2.387453556E0,-3.591433048E0,6.101121902E-1
2.120970546E1,2.298972607E0,-3.361143112E0,4.219654202E-1
2.122959979E1,2.177402973E0,-3.168735266E0,2.641777992E-1
2.124949604E1,1.962092638E0,-2.915010214E0,1.047922969E-1
2.126939322E1,1.730271339E0,-2.556293011E0,-3.854811937E-2
2.128926671E1,1.587929606E0,-2.224273205E0,-1.286268830E-1
2.130918416E1,1.507437825E0,-2.002504826E0,-1.398118287E-1
2.132904994E1,1.394456625E0,-1.844783902E0,-1.531272531E-1
2.134894046E1,1.218559980E0,-1.723214149E0,-1.707035899E-1
2.136883369E1,1.016565204E0,-1.628341794E0,-1.872812808E-1
2.138876755E1,8.672994375E-1,-1.487664461E0,-1.958031505E-1
2.140866802E1,8.028528094E-1,-1.271821618E0,-1.589860320E-1
2.142853312E1,7.868077159E-1,-1.027683616E0,-1.062569916E-1
2.144844854E1,7.207632661E-1,-8.139711618E-1,-5.559184775E-2
2.146831598E1,6.376085281E-1,-6.327484250E-1,-2.896102332E-2
2.148821000E1,5.869433880E-1,-5.026568174E-1,3.328853054E-4
2.150809776E1,5.294207931E-1,-3.981974125E-1,4.194355011E-2
2.152798651E1,4.483965337E-1,-2.596505582E-1,9.680305421E-2
2.154786703E1,3.844159544E-1,-6.564498693E-2,1.128481254E-1
2.156777479E1,3.326855898E-1,1.001319066E-1,8.242240548E-2
2.158766192E1,2.591845095E-1,1.795583367E-1,5.366111174E-2
2.160755604E1,1.402778774E-1,2.291582525E-1,4.300878197E-2
2.162744864E1,4.274247587E-2,2.989310026E-1,2.489982173E-2
2.164730921E1,-3.774919361E-2,3.735639155E-1,1.205044892E-2
2.166723468E1,-1.245656833E-1,4.471315742E-1,1.531272475E-2
2.168712947E1,-2.167749256E-1,5.073838234E-1,4.726971686E-2
2.170700114E1,-2.898099720E-1,5.388081670E-1,1.160438210E-1
2.172688901E1,-3.346163332E-1,5.356124640E-1,1.868818253E-1
2.174678609E1,-3.351489305E-1,4.983293116E-1,2.503297627E-1
2.176669083E1,-2.796902359E-1,4.503272474E-1,3.148429394E-1
2.178659000E1,-1.970681101E-1,4.423380196E-1,3.254952729E-1
2.180648458E1,-1.331541240E-1,4.396749437E-1,3.015275300E-1
2.182633536E1,-6.331478804E-2,4.300878346E-1,2.764279842E-1
2.184623177E1,3.475322574E-2,3.980642557E-1,2.567211688E-1
2.186614333E1,1.365495622E-1,3.224327266E-1,2.466014475E-1
2.188601255E1,1.877473146E-1,2.355496585E-1,2.252967805E-1
2.190591885E1,2.058562785E-1,1.811561882E-1,1.746316403E-1
2.192581052E1,2.079867423E-1,1.571884453E-1,9.307473898E-2
2.194572130E1,1.968017966E-1,1.177082509E-1,-1.617822610E-2
2.196557776E1,1.781602204E-1,1.697715186E-2,-1.312899739E-1
2.198548291E1,1.504641622E-1,-1.098521575E-1,-2.389450818E-1
2.200535703E1,1.301581562E-1,-1.972678453E-1,-3.396761715E-1
2.202527343E1,1.306907833E-1,-2.452699095E-1,-3.839499354E-1
2.204513083E1,1.381474137E-1,-2.601831555E-1,-3.839499354E-1
2.206501947E1,1.115165800E-1,-2.474003732E-1,-3.674388230E-1
2.208494812E1,7.742912322E-2,-2.164420336E-1,-3.252955377E-1
2.210482489E1,7.902697474E-2,-1.460700780E-1,-2.709686458E-1
2.212473317E1,1.136470512E-1,-3.681711480E-2,-2.213687450E-1
2.214463968E1,1.434735656E-1,6.071828306E-2,-1.707035899E-1
2.216454505E1,1.525946259E-1,1.332207024E-1,-1.312899739E-1
2.218437057E1,1.632469594E-1,1.987325400E-1,-1.483336985E-1
2.220426145E1,2.042584270E-1,9.427312016E-2,-1.573881805E-1
2.222419593E1,2.714346945E-1,-2.948032320E-1,-1.376813650E-1
2.224407458E1,3.204354048E-1,-6.503247619E-1,-2.139120996E-1
2.226394005E1,3.631113172E-1,-7.196314931E-1,-3.508611321E-1
2.228385416E1,4.089163244E-1,-5.266911387E-1,-5.075835586E-1
2.230373619E1,4.420051277E-1,-2.420076281E-1,-7.202306986E-1
2.232362234E1,4.377442002E-1,-9.387365729E-2,-9.771515727E-1
2.234356963E1,4.206338823E-1,-1.983330697E-1,-1.271888256E0
2.236341692E1,5.262250900E-1,-5.453327298E-1,-1.560300112E0
2.238331213E1,8.246901035E-1,-9.754205942E-1,-1.813958645E0
2.240322807E1,1.179679036E0,-1.271821618E0,-2.067683935E0
2.242309156E1,1.486133218E0,-1.314963579E0,-2.381594658E0
2.244297182E1,1.764358759E0,-1.099120736E0,-2.842108250E0
2.246287671E1,2.141185045E0,-6.348788738E-1,-3.462539911E0
2.248278427E1,2.703494787E0,3.666398823E-1,-4.405936718E0
2.250269052E1,3.153888702E0,2.051439047E0,-5.680355072E0
2.252258786E1,2.973198414E0,3.741631031E0,-6.718624592E0
2.254244703E1,1.859763741E0,4.359865665E0,-7.077341557E0
2.256232828E1,1.168427467E-1,2.661218405E0,-6.585403919E0
2.258221453E1,-1.582337022E0,-1.483936191E0,-4.963453293E0
2.260209927E1,-2.636651516E0,-5.787877083E0,-2.844238758E0
2.262201802E1,-2.934583902E0,-7.463088989E0,-7.352105379E-1
2.264191406E1,-2.715478659E0,-6.423222065E0,1.670751452E0
2.266176505E1,-2.761350393E0,-3.219400406E0,3.520794868E0
2.268166974E1,-4.259068012E0,1.599447370E0,3.765998125E0
2.270158406E1,-6.708771229E0,4.140827179E0,2.101438522E0
2.272151468E1,-8.323198318E0,1.436932802E0,-4.249613881E-1
2.274136052E1,-1.005866241E1,-4.093490601E0,-8.311480880E-1
2.276123817E1,-1.202221966E1,-6.629477501E0,-2.123142630E-1
2.278115197E1,-1.181330109E1,-5.707451820E0,4.224980474E-1
2.280100598E1,-9.905136108E0,-4.246484756E0,1.896247983E0
2.282091932E1,-8.092974663E0,-2.816942215E0,3.187709808E0
2.284079187E1,-6.423621655E0,-1.534534693E0,3.990362883E0
2.286072807E1,-4.770246506E0,-1.663760841E-1,4.307003498E0
2.288062218E1,-3.113143444E0,7.354768515E-1,4.030908108E0
2.290050229E1,-1.379276991E0,7.083134055E-1,3.684973955E0
2.292039354E1,3.748288751E-1,5.953320861E-1,3.371062994E0
2.294025380E1,1.902905583E0,9.737561345E-1,2.912679911E0
2.296016687E1,3.127257824E0,1.509901285E0,2.372740030E0
2.298002942E1,4.140494347E0,1.741256475E0,1.951640010E0
2.299994479E1,4.912255287E0,1.546718359E0,1.689459562E0
2.301983437E1,5.209122658E0,7.168352604E-1,1.775810003E0
2.303973645E1,5.123837471E0,-5.143743753E-1,2.178201914E0
2.305960109E1,4.825904846E0,-1.386400819E0,2.534255981E0
2.307950588E1,4.471981525E0,-1.677941799E0,2.638182640E0
2.309941109E1,4.104209900E0,-1.881001830E0,2.630193472E0
2.311929875E1,3.737503290E0,-2.237588644E0,2.577397823E0
2.313919937E1,3.471527815E0,-2.560087919E0,2.334924221E0
2.315905171E1,3.295697927E0,-2.878259659E0,2.001240015E0
2.317894755E1,3.033450842E0,-3.172996283E0,1.719286084E0
2.319886614E1,2.654494047E0,-3.295564651E0,1.454908609E0
2.321876000E1,2.286722422E0,-3.149028540E0,1.113767743E0
2.323867744E1,1.989788771E0,-2.856422424E0,7.028540373E-1
2.325858838E1,1.775011063E0,-2.649567366E0,3.755612075E-1
2.327840192E1,1.606038570E0,-2.556825638E0,1.437398791E-1
2.329828927E1,1.422685266E0,-2.504629135E0,-6.624417752E-2
2.331820177E1,1.202048898E0,-2.440648556E0,-2.410755455E-1
2.333810614E1,9.706935883E-1,-2.367080927E0,-3.529915810E-1
2.335799458E1,8.023201823E-1,-2.285058022E0,-3.653083444E-1
2.337788791E1,7.004572749E-1,-2.155498981E0,-3.023930192E-1
2.339776500E1,6.055849791E-1,-1.941254020E0,-2.341515273E-1
2.341764093E1,5.176366568E-1,-1.629407048E0,-2.064554691E-1
2.343754942E1,4.707664251E-1,-1.283539176E0,-1.723680198E-1
2.345747645E1,4.920710921E-1,-9.626377821E-1,-9.986559302E-2
2.347732640E1,5.267577171E-1,-6.993255019E-1,-1.830869168E-2
2.349721276E1,5.193011165E-1,-4.930697381E-1,3.821523488E-2
2.351711812E1,4.787556529E-1,-3.667730391E-1,5.259587988E-2
2.353699203E1,4.478639066E-1,-3.444031477E-1,5.312849581E-2
2.355689640E1,4.446682036E-1,-3.545228541E-1,8.082455397E-2
2.357678302E1,4.211665094E-1,-3.694361150E-1,1.010639817E-1
2.359667734E1,3.636439145E-1,-4.531235099E-1,1.085871905E-1
2.361656755E1,3.145766258E-1,-5.495936871E-1,1.325549334E-1
2.363645843E1,2.703694701E-1,-5.117112994E-1,1.437398791E-1
2.365636031E1,2.229000032E-1,-3.358147144E-1,1.314896941E-1
2.367626750E1,1.866820902E-1,-1.194392517E-1,9.680305421E-2
2.369613468E1,1.818885356E-1,4.101147130E-2,5.632419512E-2
2.371603098E1,1.850842386E-1,1.113168523E-1,5.632419512E-2
2.373591468E1,1.675078869E-1,1.449382752E-1,6.537867337E-2
2.375582135E1,1.328212470E-1,1.907432824E-1,3.928046674E-2
2.377568599E1,8.861406893E-2,2.440715134E-1,-1.351514366E-2
2.379561567E1,5.232957378E-2,2.648435533E-1,-8.974587917E-2
2.381550385E1,2.197043039E-2,2.125805616E-1,-1.238333359E-1
2.383536515E1,-1.850842312E-2,1.768952608E-1,-1.595186442E-1
2.385528604E1,-3.987966105E-2,1.721017063E-1,-2.293579876E-1
2.387513984E1,-7.663019747E-2,1.177082509E-1,-2.549235821E-1
2.389504755E1,-1.160438210E-1,4.846810177E-2,-2.203035057E-1
2.391492203E1,-1.219026074E-1,6.497921795E-2,-2.043250054E-1
2.393484260E1,-1.347519755E-1,1.721017063E-1,-2.165751904E-1
2.395472500E1,-1.720351279E-1,3.026593328E-1,-2.325536907E-1
2.397464328E1,-2.002638131E-1,3.618463576E-1,-2.581192851E-1
2.399454645E1,-2.162422985E-1,2.978657782E-1,-2.730991244E-1
2.401442031E1,-2.045247406E-1,1.406773329E-1,-2.970668674E-1
2.403427755E1,-1.768286824E-1,-4.693682864E-2,-3.274259865E-1
2.405418588E1,-1.363498271E-1,-1.988656968E-1,-3.605147898E-1
2.407405260E1,-7.929328084E-2,-2.665745616E-1,-4.036567509E-1
2.409397312E1,-7.323476952E-3,-2.766942680E-1,-4.414725006E-1
2.411384645E1,7.796174288E-2,-2.601831555E-1,-4.703003764E-1
2.413373651E1,2.010627389E-1,-1.967352182E-1,-5.006595254E-1
2.415362421E1,3.695026934E-1,-4.267589748E-2,-5.262250900E-1
2.417354052E1,5.501928329E-1,1.651777029E-1,-5.438680649E-1
2.419339354E1,6.940658689E-1,2.717675865E-1,-5.449332595E-1
2.421331468E1,7.473941445E-1,1.891454458E-1,-5.155727863E-1
2.423317098E1,7.223611474E-1,7.935985923E-2,-4.985290468E-1
2.425309250E1,6.743590832E-1,1.337533146E-1,-5.459985137E-1
2.427296817E1,6.573153734E-1,2.989310026E-1,-6.925346255E-1
2.429287947E1,6.706307530E-1,3.047898114E-1,-8.769530654E-1
2.431275927E1,6.903375983E-1,4.260931909E-2,-1.093328595E0
2.433264890E1,7.516550422E-1,-2.495308369E-1,-1.336401463E0
2.435258130E1,9.030513167E-1,-3.486640751E-1,-1.638594747E0
2.437249562E1,1.104513526E0,-1.541258991E-1,-2.106032372E0
2.439232911E1,1.355575562E0,2.376801223E-1,-2.745105505E0
2.441222817E1,1.715824127E0,7.264223695E-1,-3.483844519E0
2.443212458E1,2.253633499E0,1.432671785E0,-4.413926125E0
2.445201098E1,2.843706131E0,2.451766968E0,-5.489012718E0
2.447188598E1,3.152823448E0,3.537971735E0,-6.399387360E0
2.449179489E1,2.926860809E0,4.056074619E0,-6.974480152E0
2.451167203E1,2.372007608E0,3.252822161E0,-6.957436562E0
2.453157088E1,1.765424013E0,9.305475950E-1,-5.946330547E0
2.455146468E1,6.578479409E-1,-2.662949324E0,-3.344232559E0
2.457133994E1,-9.736895561E-1,-6.414167404E0,8.360747695E-1
2.459124057E1,-2.724067211E0,-6.578346729E0,3.978645325E0
2.461114552E1,-4.044290543E0,-1.350116253E0,4.826171398E0
2.463101078E1,-5.200334549E0,3.962267399E0,4.909259319E0
2.465092447E1,-7.046116829E0,5.374699593E0,3.057618141E0
2.467081187E1,-8.849822998E0,3.199560642E0,-1.459502339E0
2.469074088E1,-9.966985703E0,-2.108628750E0,-5.083425045E0
2.471061932E1,-1.086025047E1,-7.632594109E0,-5.497001648E0
2.473053020E1,-1.139805984E1,-9.904270172E0,-3.052158833E0
2.475036932E1,-1.027450562E1,-8.106955528E0,1.559900641E-1
2.477025458E1,-8.009287834E0,-4.229973793E0,2.080666304E0
2.479014526E1,-6.121894360E0,-1.038335919E0,3.271929741E0
2.481005708E1,-4.948806286E0,1.105911613E0,3.797422647E0
2.482993708E1,-3.817195892E0,2.088788748E0,3.671125889E0
2.484983234E1,-2.441514015E0,1.953371048E0,3.473392010E0
2.486971036E1,-9.496552348E-1,1.547250986E0,3.229254007E0
2.488961369E1,3.338173926E-1,1.352712750E0,2.888179541E0
2.490952578E1,1.450447917E0,1.407572269E0,2.505428076E0
2.492939703E1,2.454563141E0,1.540859580E0,2.188321590E0
2.494928239E1,3.319133043E0,1.449715614E0,2.119014740E0
2.496920317E1,3.995489359E0,9.273519516E-1,2.409490585E0
2.498908645E1,4.365924358E0,1.795583367E-1,2.848699331E0
2.500894744E1,4.353673935E0,-3.603816330E-1,3.161078930E0
2.502884859E1,4.112731457E0,-6.567161679E-1,3.319865227E0
2.504876755E1,3.863333941E0,-9.957265854E-1,3.423259497E0
2.506864130E1,3.568530560E0,-1.455174923E0,3.418465853E0
2.508858724E1,3.125659943E0,-2.033995867E0,3.250025988E0
2.510841463E1,2.634188175E0,-2.719406843E0,2.932919502E0
2.512831687E1,2.273340464E0,-3.408079863E0,2.544908285E0
2.514821541E1,2.097510338E0,-3.903746128E0,2.101971149E0
2.516808453E1,1.988723516E0,-4.183036804E0,1.744319081E0
2.518797046E1,1.769152284E0,-4.251811028E0,1.445854068E0
2.520788333E1,1.501046538E0,-4.064729691E0,1.051451564E0
2.522778750E1,1.260703325E0,-3.700686216E0,6.441996694E-1
2.524767072E1,1.151383758E0,-3.242303133E0,3.617132008E-1
2.526756010E1,1.076817393E0,-2.720472097E0,2.354165018E-1
2.528746125E1,9.153015018E-1,-2.184260368E0,1.517291218E-1
2.530732520E1,6.674350500E-1,-1.724279404E0,3.022598661E-2
2.532722177E1,4.009270668E-1,-1.377346277E0,-1.509967744E-1
2.534712687E1,3.055221438E-1,-1.209438920E0,-2.533257306E-1
2.536699380E1,3.310877383E-1,-1.209438920E0,-1.936726719E-1
2.538688619E1,3.252289593E-1,-1.179079771E0,-1.446053833E-1
2.540677968E1,2.426733971E-1,-1.084207535E0,-1.766289473E-1
2.542668119E1,1.691057384E-1,-9.951939583E-1,-2.048576325E-1
2.544658833E1,1.760297567E-1,-9.083108902E-1,-1.915422082E-1
2.546648312E1,2.250304818E-1,-8.102428913E-1,-9.134373069E-2
2.548636375E1,2.372806519E-1,-6.332810521E-1,3.328853054E-4
2.550626593E1,2.010627389E-1,-3.902081847E-1,3.821523488E-2
2.552615135E1,1.595186442E-1,-1.466026902E-1,3.129122034E-2
2.554604145E1,1.770949960E-1,2.017285116E-2,2.703028731E-2
2.556592989E1,2.282261699E-1,7.403369248E-2,7.656362653E-2
2.558581447E1,2.426733971E-1,7.882724702E-2,1.203047559E-1
2.560570010E1,1.941387206E-1,7.616416365E-2,1.341527849E-1
2.562559765E1,1.312233955E-1,7.882724702E-2,1.442724913E-1
2.564553083E1,1.205710620E-1,1.059906855E-1,1.026618332E-1
2.566539041E1,1.338864714E-1,1.305576265E-1,3.928046674E-2
2.568527682E1,1.221689135E-1,1.449382752E-1,-1.244991086E-2
2.570517583E1,8.488575369E-2,1.353511661E-1,-5.133091658E-2
2.572506171E1,3.475322574E-2,9.427312016E-2,-7.476603985E-2
2.574492432E1,-2.276935615E-2,6.231613085E-2,-1.041265279E-1
2.576482505E1,-7.982590050E-2,6.231613085E-2,-1.137136221E-1
2.578475088E1,-1.459369212E-1,1.278945357E-1,-1.099853069E-1
2.580461739E1,-1.880136281E-1,1.987325400E-1,-1.014634445E-1
2.582450750E1,-1.880136281E-1,2.013956159E-1,-8.601756394E-2
2.584437963E1,-1.645784974E-1,1.390794814E-1,-8.655018359E-2
2.586430515E1,-1.443390697E-1,5.326165259E-2,-7.909355313E-2
2.588419052E1,-1.219026074E-1,-2.083862014E-2,-7.476603985E-2
2.590407947E1,-6.917356700E-2,-9.653674066E-2,-5.452661589E-2
2.592394880E1,-8.921326138E-3,-1.359503716E-1,-3.854811937E-2
2.594384270E1,5.286218971E-2,-1.407439113E-1,-4.760260135E-2
2.596375864E1,1.093861163E-1,-1.594520658E-1,-5.026568472E-2
2.598363937E1,1.547250897E-1,-1.786262691E-1,-5.718969926E-2
2.600354562E1,2.095845938E-1,-1.855502725E-1,-9.826774895E-2
2.602344291E1,2.666411400E-1,-2.004635334E-1,-1.371487528E-1
2.604328796E1,2.836848795E-1,-2.313552946E-1,-1.243659556E-1
2.606317338E1,2.714346945E-1,-2.649767101E-1,-1.387466043E-1
2.608310119E1,2.485321760E-1,-3.390769958E-1,-1.563229412E-1
2.610297744E1,2.485321760E-1,-4.424711764E-1,-1.744984835E-1
2.612287229E1,2.554562092E-1,-5.266911387E-1,-2.069880962E-1
2.614276062E1,2.464017123E-1,-5.613112450E-1,-2.362820059E-1
2.616264911E1,2.495974153E-1,-5.250933170E-1,-2.394776940E-1
2.618259088E1,2.911415100E-1,-4.024583399E-1,-2.346841544E-1
2.620243093E1,3.535242081E-1,-1.919416785E-1,-2.885449827E-1
2.622234552E1,4.110468030E-1,2.975994721E-2,-4.191026092E-1
2.624221224E1,4.558531642E-1,1.689060181E-1,-6.360772848E-1
2.626210734E1,4.846144617E-1,1.667755395E-1,-9.830103517E-1
2.628199296E1,5.704323053E-1,-6.884068251E-2,-1.406240702E0
2.630189479E1,7.436658144E-1,-4.637758136E-1,-1.797447562E0
2.632179541E1,9.499215484E-1,-7.345447540E-1,-2.181197882E0
2.634168645E1,1.144459724E0,-6.396724582E-1,-2.649168015E0
2.636163124E1,1.344324112E0,-2.543243766E-1,-3.233381748E0
2.638153385E1,1.624680042E0,2.211690098E-1,-3.905477047E0
2.640136817E1,2.055899620E0,7.360094190E-1,-4.645813942E0
2.642126270E1,2.613948584E0,1.248785973E0,-5.448533535E0
2.644115656E1,3.147497177E0,1.561631560E0,-6.286406040E0
2.646106526E1,3.410809517E0,1.738060832E0,-6.986197472E0
2.648093072E1,3.172530174E0,1.655971289E0,-7.069884777E0
2.650082567E1,2.440715075E0,6.997914910E-1,-5.963374138E0
2.652070974E1,1.101317763E0,-1.441260338E0,-4.208735466E0
2.654060078E1,-6.336139441E-1,-4.358400822E0,-2.373072863E0
2.656054786E1,-1.352646232E0,-6.148191929E0,-8.828118443E-1
2.658044921E1,-1.516758680E0,-5.478227139E0,6.266233325E-1
2.660028208E1,-2.547105312E0,-1.644386888E0,2.500101805E0
2.662016005E1,-4.608730793E0,3.470862150E0,3.744160891E0
2.664003786E1,-6.603712559E0,5.478626728E0,3.315604448E0
2.665993255E1,-7.898902416E0,2.625000477E0,1.325416207E0
2.667984177E1,-8.552955627E0,-2.123542070E0,-5.944666266E-1
2.669974093E1,-9.971246719E0,-4.503405571E0,-1.413697362E0
2.671961932E1,-1.141996384E1,-4.045555115E0,-1.352912545E0
2.673954338E1,-1.035020351E1,-2.985382080E0,-2.293579876E-1
2.675940260E1,-8.617402077E0,-2.466280699E0,1.291794777E0
2.677929588E1,-7.452303886E0,-1.859164476E0,2.322074890E0
2.679919416E1,-6.357510567E0,-1.017563820E0,3.026726484E0
2.681908500E1,-5.001535416E0,-4.738955498E-1,3.336909056E0
2.683896833E1,-3.502752542E0,-3.912734091E-1,3.505348921E0
2.685886781E1,-2.013024092E0,-4.685693681E-1,3.534709454E0
2.687877333E1,-5.882749557E-1,-4.216325581E-1,3.367334843E0
2.689866374E1,7.900034189E-1,-6.724283099E-2,3.132783651E0
2.691855635E1,2.023410082E0,3.085181117E-1,2.899897099E0
2.693843875E1,2.977459431E0,2.275604010E-1,2.718674421E0
2.695830046E1,3.632511139E0,-1.157109365E-1,2.724000454E0
2.697821427E1,3.904345274E0,-4.061866701E-1,2.857753992E0
2.699808510E1,3.807342529E0,-8.384715319E-1,3.025128603E0
2.701800562E1,3.584043026E0,-1.649180412E0,3.164807320E0
2.703787343E1,3.396428823E0,-2.644241333E0,3.137577295E0
2.705778989E1,3.172530174E0,-3.449624062E0,2.833786249E0
2.707765119E1,2.771203756E0,-3.962933064E0,2.340782881E0
2.709757281E1,2.326136112E0,-4.295485497E0,1.799777746E0
2.711750859E1,2.037790775E0,-4.491621494E0,1.257707357E0
2.713732974E1,1.946114182E0,-4.522580147E0,8.073135018E-1
2.715724015E1,1.900775194E0,-4.350944519E0,5.376098156E-1
2.717711796E1,1.695584655E0,-3.896822214E0,3.297562003E-1
2.719702458E1,1.363032222E0,-3.176192045E0,9.307473898E-2
2.721690317E1,9.621717334E-1,-2.390582561E0,-8.761541545E-2
2.723679609E1,7.330134511E-1,-1.680072188E0,-1.894117445E-1
2.725670114E1,6.408042312E-1,-1.144393206E0,-2.165751904E-1
2.727658468E1,5.390079021E-1,-7.723605037E-1,-2.123142630E-1
2.729647588E1,4.190360308E-1,-5.175700784E-1,-2.330863029E-1
2.731635302E1,3.055221438E-1,-4.285565615E-1,-2.096511722E-1
2.733623224E1,2.645106614E-1,-4.765586257E-1,-1.382139921E-1
2.735614718E1,2.629128397E-1,-5.762245059E-1,-8.228924870E-2
2.737600984E1,2.410755455E-1,-6.439333558E-1,-3.428718820E-2
2.739592026E1,2.319544852E-1,-5.879420638E-1,-2.629793994E-2
2.741583213E1,2.570540309E-1,-4.728302956E-1,1.637795754E-2
2.743569703E1,2.645106614E-1,-3.081186414E-1,7.070484012E-2
2.745560197E1,2.479995638E-1,-8.162347972E-2,7.230269164E-2
2.747549124E1,2.175738513E-1,1.209039465E-1,8.987903595E-2
2.749538062E1,1.936061084E-1,2.723001838E-1,1.031944528E-1
2.751528750E1,1.957365721E-1,3.591832519E-1,9.627043456E-2
2.753515583E1,1.744319052E-1,3.858141005E-1,8.508548886E-2
2.755504250E1,1.184405982E-1,3.767596185E-1,1.064567268E-1
2.757493036E1,7.157034427E-2,3.938033283E-1,1.117828935E-1
2.759483145E1,4.487293959E-2,4.167724252E-1,1.096524224E-1
2.761471776E1,3.315537795E-2,4.205007255E-1,1.203047559E-1
2.763464619E1,2.410089783E-2,4.290226102E-1,1.075219586E-1
2.765456203E1,9.187635034E-3,4.268921316E-1,8.668334037E-2
2.767440260E1,3.861469682E-3,4.039896131E-1,6.963960826E-2
2.769428630E1,-9.986559860E-3,3.655746579E-1,6.591129303E-2
2.771418052E1,-3.721657768E-2,3.400090635E-1,5.046541616E-2
2.773407125E1,-5.479292199E-2,3.256284297E-1,2.383458801E-2
2.775395005E1,-5.426030606E-2,3.037245572E-1,-1.511299331E-2
2.777384369E1,-5.106460676E-2,2.691044807E-1,-4.227643460E-2
2.779375937E1,-4.786890745E-2,2.483324558E-1,-5.026568472E-2
2.781364255E1,-4.999937490E-2,2.456693649E-1,-5.026568472E-2
2.783356109E1,-5.053199083E-2,2.456693649E-1,-5.239614844E-2
2.785343666E1,-6.331478804E-2,2.350170314E-1,-4.280905053E-2
2.787332260E1,-8.781515062E-2,2.382127345E-1,-3.268933669E-2
2.789320812E1,-8.781515062E-2,2.430062890E-1,-1.937392540E-2
2.791307989E1,-7.023879886E-2,2.243647128E-1,1.398118329E-3
2.793299942E1,-5.372769013E-2,1.864823550E-1,1.258306485E-2
2.795288416E1,-3.987966105E-2,1.518622786E-1,1.424749196E-2
2.797278322E1,-2.010627277E-2,1.203713343E-1,1.364829857E-2
2.799268385E1,-7.856093347E-3,9.480573982E-2,5.126433913E-3
2.801259494E1,5.991935730E-3,6.018566713E-2,-8.721595630E-3
2.803248364E1,2.463351376E-2,6.857437547E-3,-3.641765565E-2
2.805233880E1,4.007939249E-2,-4.746944830E-2,-8.015878499E-2
2.807224291E1,5.339480564E-2,-7.629731297E-2,-1.179745570E-1
2.809210447E1,7.316819578E-2,-8.428656310E-2,-1.366161406E-1
2.811200942E1,8.861406893E-2,-9.919982404E-2,-1.451379955E-1
2.813188682E1,9.340762347E-2,-1.471353173E-1,-1.568555683E-1
2.815178375E1,1.045925692E-1,-2.207029611E-1,-1.744984835E-1
2.817165427E1,1.456040442E-1,-3.006620109E-1,-1.792920381E-1
2.819157614E1,2.058562785E-1,-3.673056662E-1,-1.739658713E-1
2.821143807E1,2.677063644E-1,-4.019257426E-1,-2.085859478E-1
2.823135291E1,3.519263566E-1,-3.832841516E-1,-3.018604219E-1
2.825124989E1,4.792882800E-1,-2.729659677E-1,-4.207004607E-1
2.827111630E1,6.115103364E-1,-4.107804969E-2,-5.294207931E-1
2.829100421E1,7.101109624E-1,3.069202602E-1,-6.488600373E-1
2.831091666E1,7.697640061E-1,6.427350044E-1,-8.220936060E-1
2.833082177E1,7.756227851E-1,6.651048660E-1,-1.085339308E0
2.835073328E1,7.985919118E-1,1.657103151E-1,-1.442991257E0
2.837063140E1,9.643021822E-1,-5.985943675E-1,-1.808632493E0
2.839052682E1,1.299051642E0,-1.082077026E0,-2.241450071E0
2.841039770E1,1.634866357E0,-1.054314375E0,-2.858685970E0
2.843027500E1,1.880003095E0,-5.969965458E-1,-3.694427967E0
2.845018885E1,2.193448067E0,2.440715134E-1,-4.753468990E0
2.847004849E1,2.759486198E0,1.272221088E0,-5.856784344E0
2.848996187E1,3.560541391E0,2.239585876E0,-6.983534336E0
2.850985645E1,4.489025116E0,3.133982182E0,-8.154558182E0
2.852972432E1,5.125435352E0,3.477786064E0,-8.559081078E0
2.854962807E1,4.846144676E0,2.599368334E0,-7.083733082E0
2.856953442E1,3.124594688E0,6.459306479E-1,-3.988631964E0
2.858939599E1,6.567827463E-1,-1.697648525E0,-1.048588753E0
2.860929588E1,-1.143660784E0,-3.330251217E0,7.971937656E-1
2.862920052E1,-2.222475529E0,-4.046620369E0,2.114753962E0
2.864907848E1,-3.371129751E0,-3.981574774E0,2.871069193E0
2.866897968E1,-5.275499821E0,-2.331928253E0,2.469210148E0
2.868884724E1,-8.252293587E0,-7.462623119E-1,1.362166762E0
2.870876364E1,-1.112516022E1,-2.075007439E0,-6.813496947E-1
2.872868302E1,-1.184312725E1,-5.996329784E0,-1.883798003E0
2.874856734E1,-1.172268963E1,-8.754018784E0,-1.039534330E0
2.876843755E1,-1.137995052E1,-8.606949806E0,6.186341047E-1
2.878834020E1,-9.534701347E0,-7.354368687E0,2.699500322E0
2.880822666E1,-6.734336376E0,-5.956849575E0,4.752603531E0
2.882811598E1,-4.356070518E0,-3.583443880E0,5.854321003E0
2.884798828E1,-3.144035339E0,-4.307536185E-1,6.077620506E0
2.886789114E1,-2.608356237E0,2.376601458E0,5.385285378E0
2.888777843E1,-1.885062933E0,3.889765024E0,4.289959908E0
2.890764661E1,-5.243609548E-1,3.945223570E0,3.640234232E0
2.892756125E1,1.151383758E0,3.251224279E0,3.285777807E0
2.894745026E1,2.675266266E0,2.505561113E0,2.820470810E0
2.896734927E1,3.873986244E0,1.765756845E0,2.518277407E0
2.898723489E1,4.502407074E0,8.836773634E-1,2.578995705E0
2.900713802E1,4.695347309E0,-2.936048433E-2,2.975062609E0
2.902702604E1,4.689488888E0,-6.012574434E-1,3.362008572E0
2.904688833E1,4.487959862E0,-7.654365301E-1,3.502686024E0
2.906677765E1,4.203875542E0,-8.581783772E-1,3.622058630E0
2.908669479E1,3.964597702E0,-9.168327451E-1,3.655147314E0
2.910660036E1,3.625054598E0,-9.056478143E-1,3.436574936E0
2.912649578E1,2.989176989E0,-1.011705041E0,3.016074181E0
2.914635520E1,2.207828522E0,-1.321887612E0,2.462818861E0
2.916626052E1,1.587929606E0,-1.772814035E0,1.815223694E0
2.918614364E1,1.244658232E0,-2.328732491E0,1.194259405E0
2.920602817E1,1.146590233E0,-2.971001387E0,7.716282010E-1
2.922591724E1,1.122089863E0,-3.504549980E0,4.288894534E-1
2.924582083E1,9.957931638E-1,-3.777981997E0,1.336201727E-1
2.926569489E1,7.399374843E-1,-3.766264439E0,-5.133091658E-2
2.928561755E1,4.446682036E-1,-3.502419710E0,-1.798246503E-1
2.930547703E1,2.932719588E-1,-3.077591419E0,-1.814225018E-1
2.932539416E1,2.916741073E-1,-2.507824898E0,-6.304848194E-2
2.934527604E1,3.300225139E-1,-1.795716524E0,2.063889056E-2
2.936517145E1,3.140439987E-1,-1.112968802E0,5.312849581E-2
2.938505494E1,2.698368430E-1,-6.428681016E-1,8.455286920E-2
2.940494312E1,2.618475854E-1,-4.387428463E-1,1.208373681E-1
2.942483474E1,3.476654291E-1,-3.944691122E-1,1.171090528E-1
2.944472619E1,4.595814645E-1,-4.072518945E-1,1.069893390E-1
2.946464458E1,5.123105049E-1,-4.072518945E-1,1.165764406E-1
2.948452343E1,5.005929470E-1,-3.422726989E-1,1.144459695E-1
2.950438963E1,4.638423920E-1,-2.458025217E-1,1.181742921E-1
2.952430609E1,4.467986822E-1,-1.663760841E-1,1.469355822E-1
2.954420416E1,4.515922368E-1,-9.813459218E-2,1.799578071E-1
2.956405880E1,4.414725006E-1,-2.989310212E-2,1.997311860E-1
2.958397395E1,3.913399875E-1,3.462007269E-2,1.970015317E-1
2.960384296E1,3.396761715E-1,8.308817446E-2,1.836861223E-1
2.962375000E1,3.076526225E-1,1.235670298E-1,1.794251949E-1
2.964364968E1,2.634454370E-1,1.646450758E-1,1.804904193E-1
2.966354593E1,1.749645174E-1,2.168415040E-1,1.559900641E-1
2.968343010E1,5.446003750E-2,2.536586225E-1,8.508548886E-2
2.970331062E1,-4.999937490E-2,2.173741162E-1,1.584534161E-2
2.972319682E1,-1.139133573E-1,1.715690941E-1,-3.854811937E-2
2.974310401E1,-1.448716968E-1,1.587862968E-1,-7.962616533E-2
2.976297234E1,-1.773612946E-1,1.284271628E-1,-9.134373069E-2
2.978286099E1,-2.023942769E-1,8.149032295E-2,-8.655018359E-2
2.980276546E1,-1.784265339E-1,7.137060910E-2,-7.103772461E-2
2.982271124E1,-1.250983030E-1,1.177082509E-1,-5.772231519E-2
2.984261296E1,-1.027284116E-1,1.641124636E-1,-2.256962471E-2
2.986245578E1,-1.197721362E-1,1.582536846E-1,2.010627277E-2
2.988235005E1,-1.101850420E-1,1.102516204E-1,3.129122034E-2
2.990225468E1,-6.438001990E-2,6.604444981E-2,2.383458801E-2
2.992213072E1,-1.904104091E-2,8.415340632E-2,1.151783206E-2
2.994199901E1,9.720250964E-3,1.262966841E-1,-3.395430278E-3
2.996192218E1,3.209014609E-2,1.081211492E-1,-2.256962471E-2
2.998181135E1,7.423342764E-2,3.568530455E-2,-5.133091658E-2
3.000169489E1,1.269624680E-1,-1.924077235E-2,-1.046591476E-1
3.002156859E1,1.563229412E-1,-3.521926701E-2,-1.589860320E-1
3.004153031E1,1.418757290E-1,-5.279561132E-2,-1.856834292E-1
3.006135562E1,1.173753664E-1,-9.547150880E-2,-2.133794874E-1
3.008124536E1,1.258972287E-1,-1.642456204E-1,-2.517278790E-1
3.010114854E1,1.589860320E-1,-2.420076281E-1,-2.853493094E-1
3.012103442E1,1.962691844E-1,-3.097164929E-1,-3.066539466E-1
3.014090869E1,2.175738513E-1,-3.726318181E-1,-3.050560951E-1
3.016081474E1,2.197043151E-1,-4.280239344E-1,-3.386109471E-1
3.018070791E1,2.367480397E-1,-4.936023653E-1,-4.425377548E-1
3.020059557E1,2.959350348E-1,-4.962654412E-1,-6.408708096E-1
3.022046630E1,3.806876540E-1,-4.355471432E-1,-8.673660159E-1
3.024035343E1,4.409399033E-1,-3.806210756E-1,-1.054980159E0
3.026030312E1,4.579836130E-1,-3.352820873E-1,-1.205311179E0
3.028015052E1,4.792882800E-1,-2.846835256E-1,-1.354510307E0
3.030005791E1,6.487934589E-1,-3.086512685E-1,-1.526678681E0
3.031992515E1,9.925974607E-1,-4.147085249E-1,-1.730271339E0
3.033984437E1,1.439728975E0,-4.696346223E-1,-1.993583560E0
3.035974093E1,1.916287661E0,-4.504604042E-1,-2.303300142E0
3.037961807E1,2.382659912E0,-3.555881083E-1,-2.659820318E0
3.039953463E1,2.860749960E0,-1.780936420E-1,-3.063876390E0
3.041942276E1,3.411874771E0,4.260931909E-2,-3.548890352E0
3.043928359E1,4.050948143E0,2.866808474E-1,-4.195420265E0
3.045920062E1,4.644682407E0,5.995930433E-1,-4.945877075E0
3.047907828E1,4.878168106E0,1.262634039E0,-5.528426170E0
3.049895807E1,4.435230732E0,2.479995728E0,-5.528426170E0
3.051887432E1,3.335644007E0,3.444164753E0,-4.796078682E0
3.053875312E1,1.860296369E0,3.227789164E0,-3.582977772E0
3.055868380E1,3.023264408E-1,1.384137154E0,-2.452499390E0
3.057859203E1,-1.036005735E0,-2.491313696E0,-1.168494105E0
3.059844682E1,-2.443711042E0,-6.251586437E0,4.875438511E-1
3.061833255E1,-3.783641100E0,-6.323555946E0,1.659033895E0
3.063820724E1,-4.861390591E0,-3.425656319E0,2.411088467E0
3.065810666E1,-6.349521160E0,-9.408004880E-1,2.621671677E0
3.067798838E1,-8.565205574E0,-6.785534620E-1,1.446919322E0
3.069786718E1,-1.029474449E1,-2.735917807E0,-4.308201671E-1
3.071777781E1,-1.025746155E1,-5.500064373E0,-1.776675582E0
3.073766817E1,-1.134905910E1,-6.514898777E0,-2.234525919E0
3.075755546E1,-1.139912510E1,-5.903587818E0,-1.017164350E0
3.077746124E1,-9.173320770E0,-4.525242805E0,6.335473657E-1
3.079738244E1,-7.439986706E0,-2.937979221E0,2.176604033E0
3.081724296E1,-6.269562244E0,-9.040499330E-1,3.342767715E0
3.083713161E1,-5.282956600E0,1.072889328E0,3.704680681E0
3.085701203E1,-4.175380707E0,1.706636429E0,3.861935854E0
3.087688500E1,-2.639314651E0,1.305243373E0,3.954677582E0
3.089678687E1,-9.864723682E-1,9.065798521E-1,3.838500738E0
3.091668093E1,5.352795720E-1,8.457950354E-1,3.548024893E0
3.093659843E1,1.925342083E0,1.027017832E0,3.186644554E0
3.095649359E1,3.116605520E0,1.433737040E0,2.992639065E0
3.097636374E1,3.984837055E0,1.768419981E0,2.886581659E0
3.099625052E1,4.402142048E0,1.184805393E0,2.971267700E0
3.101614520E1,4.429904461E0,-3.428052962E-1,3.258614302E0
3.103603088E1,4.196951389E0,-1.649713039E0,3.426455259E0
3.105590640E1,3.912867308E0,-2.148575068E0,3.390237331E0
3.107581260E1,3.664468288E0,-2.384723902E0,3.337974310E0
3.109569015E1,3.336176634E0,-2.794572353E0,3.280451775E0
3.111560885E1,2.900696039E0,-3.154887438E0,3.043237686E0
3.113554927E1,2.537185431E0,-3.322794676E0,2.611019373E0
3.115539958E1,2.328266621E0,-3.583443880E0,2.189919472E0
3.117529145E1,2.136924028E0,-3.959737539E0,1.854637265E0
3.119515953E1,1.912026644E0,-4.157471180E0,1.487398148E0
3.121506968E1,1.623082280E0,-4.026847363E0,1.016232252E0
3.123494718E1,1.252647400E0,-3.700686216E0,5.354793072E-1
3.125483927E1,9.376713634E-1,-3.307348728E0,2.263620198E-1
3.127472567E1,8.108420372E-1,-2.894238234E0,7.070484012E-2
3.129463645E1,7.665683031E-1,-2.492911577E0,-4.600474983E-2
3.131456468E1,6.461303830E-1,-2.123542070E0,-5.292876437E-2
3.133441776E1,5.101800561E-1,-1.667289376E0,-9.134373069E-2
3.135428974E1,4.142425060E-1,-1.198786616E0,-1.760963351E-1
3.137420635E1,3.854812086E-1,-8.714937568E-1,-1.339530498E-1
3.139407526E1,3.865464330E-1,-6.876079440E-1,-3.854811937E-2
3.141397765E1,3.716331720E-1,-6.215634942E-1,1.904104091E-2
3.143387947E1,3.380783200E-1,-6.189003587E-1,2.170412242E-2
3.145376067E1,2.938045859E-1,-6.210308671E-1,4.141093418E-2
3.147366072E1,2.464017123E-1,-5.288216472E-1,1.424749196E-2
3.149353989E1,1.797580719E-1,-4.061866701E-1,7.789516356E-3
3.151344437E1,1.179079786E-1,-2.974663079E-1,5.579157919E-2
3.153333624E1,6.943988055E-2,-1.679739356E-1,3.768261895E-2
3.155321812E1,3.368799388E-2,-5.812177807E-2,5.659050308E-3
3.157310474E1,1.131810062E-2,2.762948163E-2,1.098521519E-2
3.159299755E1,-1.051917579E-2,8.042509109E-2,4.087831825E-2
3.161287880E1,-3.987966105E-2,9.906667471E-2,6.111774594E-2
3.163278265E1,-6.011908874E-2,1.422751844E-1,5.525896326E-2
3.165267364E1,-5.372769013E-2,2.334191799E-1,1.744319126E-2
3.167262229E1,-4.999937490E-2,3.250958025E-1,5.659050308E-3
3.169245203E1,-7.609758526E-2,3.916728795E-1,-1.997311920E-4
3.171233307E1,-1.181742921E-1,4.001947343E-1,-2.862813650E-3
3.173224583E1,-1.560566425E-1,3.575854003E-1,-5.525896326E-3
3.175213864E1,-1.560566425E-1,3.010614812E-1,-3.748288751E-2
3.177202750E1,-1.293592304E-1,2.163088769E-1,-5.825493112E-2
3.179192187E1,-9.420654923E-2,1.065233052E-1,-7.849435508E-2
3.181178145E1,-5.585815758E-2,-1.018629037E-2,-9.134373069E-2
3.183169296E1,-3.062544856E-3,-6.191666797E-2,-1.057243794E-1
3.185159781E1,6.624417752E-2,-3.095833398E-2,-1.254311949E-1
3.187154562E1,1.264298409E-1,4.101147130E-2,-1.350182891E-1
3.189136458E1,1.493989378E-1,9.107742459E-2,-1.366161406E-1
3.191125057E1,1.290929317E-1,7.403369248E-2,-1.217028722E-1
3.193113619E1,1.083208844E-1,4.260931909E-2,-1.078548431E-1
3.195104255E1,8.275528997E-2,4.367455468E-2,-1.009308323E-1
3.197091026E1,4.274247587E-2,3.888100386E-2,-9.507204592E-2
3.199081880E1,7.057168987E-3,-1.178414002E-2,-8.761541545E-2
3.201074239E1,-9.986559860E-3,-1.034607589E-1,-7.796174288E-2
3.203061833E1,7.589785382E-3,-1.967352182E-1,-9.027849883E-2
3.205058812E1,5.665707961E-2,-2.521939278E-1,-1.557903290E-1
3.207040307E1,1.264298409E-1,-2.926727831E-1,-2.314884514E-1
3.209025317E1,1.834863871E-1,-3.566533327E-1,-2.880123854E-1
3.211017635E1,2.276935577E-1,-4.248282313E-1,-3.466002047E-1
3.213003651E1,2.597171366E-1,-4.653736651E-1,-4.015262723E-1
3.214993713E1,2.698368430E-1,-4.600475132E-1,-3.892760873E-1
3.216981984E1,2.927393615E-1,-3.870124817E-1,-3.205019832E-1
3.218972192E1,3.161744773E-1,-2.223008126E-1,-3.119801283E-1
3.220961734E1,3.326855898E-1,-6.244928762E-2,-4.015262723E-1
3.222951166E1,3.631113172E-1,-5.705654249E-2,-5.507920384E-1
3.224941895E1,4.404072762E-1,-2.953358591E-1,-7.298843265E-1
3.226928505E1,5.896064639E-1,-6.982602477E-1,-9.078448415E-1
3.228918250E1,7.905360460E-1,-1.060173154E0,-1.114699841E0
3.230908281E1,1.026152253E0,-1.276082635E0,-1.383870840E0
3.232894546E1,1.294258118E0,-1.384802938E0,-1.743586779E0
3.234887474E1,1.584201217E0,-1.376281023E0,-2.172675848E0
3.236875479E1,1.883731484E0,-1.232874036E0,-2.650233269E0
3.238866239E1,2.173674583E0,-1.033009768E0,-3.180053473E0
3.240860302E1,2.483391047E0,-8.762873411E-1,-3.815398455E0
3.242841583E1,2.830856800E0,-5.927355886E-1,-4.574377060E0
3.244830791E1,3.081918955E0,-4.860125482E-3,-5.334420681E0
3.246823416E1,2.978524685E0,6.528546810E-1,-5.970298290E0
3.248811447E1,2.310157537E0,1.010506630E0,-6.299721718E0
3.250800718E1,1.098654747E0,8.682314754E-1,-6.177086353E0
3.252790015E1,-3.665733039E-1,1.571884453E-1,-5.607852459E0
3.254777781E1,-1.483203888E0,-5.724961758E-1,-4.301477432E0
3.256766822E1,-1.800909638E0,-6.087141037E-1,-2.411487818E0
3.258758489E1,-2.171344280E0,-7.469946891E-2,-6.515231729E-1
3.260748729E1,-3.018271208E0,6.960632205E-1,5.013918877E-1
3.262733671E1,-4.516521454E0,6.406044960E-1,1.126617074E0
3.264725567E1,-6.537667751E0,-6.274222732E-1,1.183074474E0
3.266713598E1,-8.317339897E0,-2.508357525E0,6.596455574E-1
3.268701578E1,-9.384436607E0,-4.463392735E0,3.302888274E-1
3.270692937E1,-9.592823029E0,-5.280493259E0,1.336201727E-1
3.272681187E1,-9.896614075E0,-4.425577164E0,2.913412452E-1
3.274669119E1,-1.040459728E1,-2.812681198E0,5.605123043E-1
3.276657406E1,-9.623182297E0,-1.926873446E0,1.109506726E0
3.278646182E1,-8.099366188E0,-1.782401204E0,2.052437782E0
3.280638750E1,-6.803110600E0,-1.570819259E0,3.096033096E0
3.282624703E1,-5.595868587E0,-6.348788738E-1,3.913666248E0
3.284615734E1,-4.341157436E0,6.843456626E-1,4.061800003E0
3.286604333E1,-2.970269203E0,1.162435532E0,4.047419548E0
3.288591437E1,-1.348385334E0,1.069161057E0,4.125780582E0
3.290583260E1,3.695026934E-1,1.129346728E0,4.082039356E0
3.292569796E1,1.868818164E0,1.119759679E0,3.993625164E0
3.294559869E1,3.062211990E0,7.856093645E-1,3.952014446E0
3.296552510E1,4.000815392E0,2.179733068E-1,3.871522903E0
3.298539140E1,4.695879936E0,-6.977276206E-1,3.847555161E0
3.300529604E1,4.958060741E0,-1.867153764E0,3.850750923E0
3.302517703E1,4.713988781E0,-2.658155918E0,3.797422647E0
3.304506359E1,4.260931969E0,-2.711950064E0,3.618862867E0
3.306496083E1,3.861736059E0,-2.459822893E0,3.271929741E0
3.308485375E1,3.496094704E0,-2.515814066E0,2.876928091E0
3.310473057E1,3.024396181E0,-2.919803619E0,2.470275402E0
3.312465812E1,2.398105860E0,-3.285977602E0,1.830669522E0
3.314455171E1,1.787793875E0,-3.458678484E0,1.014634490E0
3.316444770E1,1.379543304E0,-3.588770151E0,4.581833482E-1
3.318428062E1,1.166363597E0,-3.676185846E0,1.964689195E-1
3.320419843E1,9.403344393E-1,-3.612737894E0,3.821523488E-2
3.322409599E1,5.832150578E-1,-3.319598913E0,-7.370080799E-2
3.324396348E1,2.010627389E-1,-2.723134995E0,-2.139120996E-1
3.326388432E1,-4.094489291E-2,-2.017484665E0,-3.210346103E-1
3.328376802E1,-9.420654923E-2,-1.483936191E0,-2.874797583E-1
3.330364474E1,-8.035851270E-2,-1.123088479E0,-1.819551140E-1
3.332356838E1,-6.597787142E-2,-8.065145612E-1,-1.435401440E-1
3.334341755E1,-3.075860441E-2,-5.122439265E-1,-1.867486686E-1
3.336330442E1,5.825493112E-2,-3.380117416E-1,-2.021945417E-1
3.338322875E1,1.893451661E-1,-3.043903410E-1,-1.211702600E-1
3.340312083E1,2.650432885E-1,-3.272928596E-1,-2.330197254E-3
3.342299224E1,2.900762558E-1,-3.481314778E-1,1.128481254E-1
3.344289614E1,3.065873682E-1,-3.460009992E-1,1.879470497E-1
3.346279177E1,3.310877383E-1,-3.027924895E-1,2.689713240E-1
3.348271489E1,3.434045017E-1,-2.036592364E-1,3.734307587E-1
3.350259395E1,3.039242923E-1,-6.830807030E-2,4.347482324E-1
3.352244375E1,2.207695395E-1,6.178351492E-2,4.629769027E-1
3.354232567E1,1.440061927E-1,1.731669456E-1,4.736292362E-1
3.356226177E1,1.322886199E-1,2.520607710E-1,4.768915176E-1
3.358215239E1,1.328212470E-1,2.797568142E-1,4.806198180E-1
3.360201713E1,1.402778774E-1,2.712349594E-1,4.544550478E-1
3.362195937E1,1.824211627E-1,2.515281439E-1,4.193023443E-1
3.364179083E1,2.767608464E-1,1.811561882E-1,4.315525293E-1
3.366168463E1,3.609808385E-1,6.018566713E-2,4.459331632E-1
3.368157093E1,3.860138059E-1,-7.416684926E-2,3.916063011E-1
3.370153640E1,3.540568352E-1,-2.031266242E-1,2.854824364E-1
3.372136088E1,3.076526225E-1,-3.304885328E-1,1.549248248E-1
3.374126703E1,2.527931035E-1,-4.659062922E-1,4.141093418E-2
3.376120296E1,1.850842386E-1,-5.868768096E-1,-3.481980413E-2
3.378104874E1,1.344190985E-1,-6.263570189E-1,-9.347419441E-2
3.380094724E1,1.013968661E-1,-5.703657269E-1,-1.713027805E-1
3.382081046E1,7.210296392E-2,-5.186353326E-1,-2.053902447E-1
3.384073708E1,4.593817517E-2,-4.728302956E-1,-1.739658713E-1
3.386070567E1,-1.158440951E-2,-3.976648152E-1,-1.291595101E-1
3.388061375E1,-1.053914949E-1,-2.889444530E-1,-7.583127916E-2
3.390037135E1,-1.683068126E-1,-1.887459755E-1,-3.215672076E-2
3.392028427E1,-1.336867511E-1,-1.669086963E-1,1.904104091E-2
3.394018364E1,-4.680367559E-2,-2.286922187E-1,5.845466256E-2
3.396005604E1,-3.595161485E-3,-2.910749316E-1,7.709623873E-2
3.397995145E1,1.664426550E-2,-2.569874525E-1,6.324820966E-2
3.399985156E1,5.126433820E-2,-1.679739356E-1,1.151783206E-2
3.401974781E1,9.074454010E-2,-1.460700780E-1,-3.268933669E-2
3.403962885E1,1.195058301E-1,-2.254965156E-1,-6.251586229E-2
3.405951015E1,1.434735656E-1,-3.331516385E-1,-8.974587917E-2
3.407942656E1,1.893451661E-1,-3.827515543E-1,-1.296921223E-1
3.409928651E1,2.506626546E-1,-3.678382933E-1,-1.739658713E-1
3.411923171E1,2.954024374E-1,-3.460009992E-1,-1.979336143E-1
3.413908682E1,3.193701804E-1,-3.262276053E-1,-2.464017123E-1
3.415898635E1,3.695026934E-1,-3.193036020E-1,-3.423392773E-1
3.417886062E1,5.160388350E-1,-3.678382933E-1,-4.089829028E-1
3.419874145E1,7.580464482E-1,-4.355471432E-1,-4.505935609E-1
3.421865052E1,1.026684880E0,-4.616453648E-1,-6.147060394E-1
3.423858041E1,1.268692493E0,-4.818847775E-1,-9.963257909E-1
3.425842255E1,1.476013541E0,-6.183677912E-1,-1.530939579E0
3.427832213E1,1.716889381E0,-9.621051550E-1,-2.069281816E0
3.429820145E1,2.035127640E0,-1.335735679E0,-2.586851835E0
3.431808526E1,2.285124540E0,-1.628341794E0,-3.095300913E0
3.433797916E1,2.343179703E0,-2.068615913E0,-3.596892357E0
3.435790734E1,2.404497147E0,-2.603229761E0,-4.183170319E0
3.437776776E1,2.737582207E0,-2.878792286E0,-4.945344448E0
3.439767906E1,3.379851341E0,-2.513683558E0,-6.129150867E0
3.441756083E1,4.090361595E0,-1.252048254E0,-7.820874214E0
3.443744427E1,4.440557003E0,5.824827552E-1,-9.363930702E0
3.445734265E1,3.622391462E0,1.326015353E0,-9.137901306E0
3.447724791E1,8.897358775E-1,-3.934038579E-1,-6.834867954E0
3.449712474E1,-1.484801650E0,-3.064808607E0,-4.436362743E0
3.451702015E1,-2.064687967E0,-6.271359921E0,-2.009562016E0
3.453693213E1,-2.239519358E0,-8.025465965E0,9.256209135E-1
3.455679114E1,-2.565746784E0,-4.654202938E0,3.039509296E0
3.457669786E1,-4.373647213E0,9.422652125E-1,4.862921715E0
3.459659807E1,-7.790182114E0,3.852481842E0,5.751992226E0
3.461649171E1,-1.036724758E1,2.765677929E0,4.719514847E0
3.463637760E1,-1.060286331E1,-5.154396296E-1,3.234047413E0
3.465626541E1,-1.033102894E1,-2.556293011E0,2.234126568E0
3.467616437E1,-1.135971165E1,-2.197109699E0,1.600445986E0
3.469605593E1,-1.072809505E1,-1.472751260E0,1.913291693E0
3.471594781E1,-8.915334702E0,-1.575080156E0,3.240438938E0
3.473580317E1,-7.269483089E0,-9.221588969E-1,3.965862513E0
3.475571130E1,-5.911910057E0,-9.121057577E-3,4.372581959E0
3.477559588E1,-4.736625195E0,5.382755399E-1,4.743016720E0
3.479553078E1,-3.339106083E0,6.565830112E-1,5.098471642E0
3.481538635E1,-1.846181989E0,5.217644572E-1,5.315446377E0
3.483526645E1,-4.705001116E-1,4.001947343E-1,5.230161190E0
3.485520343E1,8.193639517E-1,2.659088075E-1,5.003599167E0
3.487507864E1,2.057497501E0,1.324883569E-2,4.598544598E0
3.489497416E1,2.976926804E0,-6.700315475E-1,4.098084450E0
3.491482328E1,3.418266296E0,-1.894849777E0,3.556014061E0
3.493476338E1,3.623989344E0,-3.252955437E0,3.044835329E0
3.495467192E1,3.714600801E0,-4.040761948E0,2.532125473E0
3.497457255E1,3.695959091E0,-4.240625858E0,2.055633545E0
3.499442598E1,3.442766666E0,-4.269919872E0,1.607370019E0
3.501431374E1,2.934317589E0,-4.278441906E0,1.053582072E0
3.503423338E1,2.344244957E0,-4.181438923E0,5.077832937E-1
3.505410651E1,1.818752289E0,-3.913333178E0,7.709623873E-2
3.507397869E1,1.433337569E0,-3.600487709E0,-1.862160414E-1
3.509386197E1,1.110904932E0,-3.385110855E0,-2.730991244E-1
3.511376974E1,8.593101501E-1,-3.184181213E0,-3.423392773E-1
3.513367343E1,6.770221591E-1,-2.847900391E0,-4.281570911E-1
3.515354744E1,5.155062079E-1,-2.287188530E0,-5.406057835E-1
3.517345166E1,4.356137216E-1,-1.701909542E0,-5.593138933E-1
3.519333317E1,4.308201671E-1,-1.241928577E0,-5.043878555E-1
3.521323437E1,4.670380950E-1,-9.402678609E-1,-4.830831885E-1
3.523309901E1,4.846144617E-1,-8.469933867E-1,-4.543218911E-1
3.525299895E1,4.760925770E-1,-9.402678609E-1,-3.919391632E-1
3.527288130E1,4.910058379E-1,-1.060705781E0,-3.311543167E-1
3.529278552E1,5.432688594E-1,-1.040998936E0,-2.768274248E-1
3.531268572E1,5.528559685E-1,-8.736242056E-1,-2.091185600E-1
3.533262348E1,4.819513559E-1,-6.513900161E-1,-1.201050207E-1
3.535246171E1,3.497959077E-1,-4.221651554E-1,-5.505923182E-2
3.537233994E1,2.975328863E-1,-2.217682004E-1,-1.458037738E-2
3.539222838E1,3.268268108E-1,-8.002562821E-2,6.005251035E-2
3.541213916E1,3.257615864E-1,5.379426852E-2,1.703707129E-1
3.543200421E1,2.836848795E-1,2.157762647E-1,2.364817262E-1
3.545190062E1,2.234326303E-1,3.426721394E-1,2.540580630E-1
3.547182208E1,1.952039450E-1,4.157072008E-1,2.189053893E-1
3.549169692E1,2.037258148E-1,4.380770922E-1,1.693054736E-1
3.551158734E1,2.175738513E-1,4.311530590E-1,1.394789517E-1
3.553156598E1,1.861494780E-1,4.263595045E-1,1.128481254E-1
3.555135484E1,1.274950802E-1,4.242290556E-1,6.910699606E-2
3.557127276E1,8.914668858E-2,4.274247587E-1,-7.323477184E-4
3.559116317E1,7.742912322E-2,4.012599587E-1,-6.358109415E-2
3.561103724E1,5.392742157E-2,3.095833361E-1,-6.517894566E-2
3.563095354E1,1.344856713E-2,2.185059190E-1,-3.481980413E-2
3.565083765E1,-2.916075476E-2,2.003303915E-1,-1.724345982E-2
3.567072979E1,-4.946675897E-2,2.334191799E-1,-1.264964230E-3
3.569064046E1,-6.438001990E-2,2.579195499E-1,4.886756465E-2
3.571054989E1,-9.367392957E-2,2.786915898E-1,9.627043456E-2
3.573038729E1,-1.358172148E-1,3.176391721E-1,1.128481254E-1
3.575030020E1,-1.672415882E-1,3.453352451E-1,9.680305421E-2
3.577019302E1,-1.794917583E-1,3.330850601E-1,5.792204663E-2
3.579006140E1,-1.912093312E-1,2.850829959E-1,5.659050308E-3
3.580997520E1,-2.013290375E-1,1.891454458E-1,-2.842840552E-2
3.582986067E1,-2.135792226E-1,9.640359133E-2,-5.133091658E-2
3.584975974E1,-2.157096863E-1,5.272903293E-2,-7.742912322E-2
3.586962062E1,-1.976007223E-1,4.047885537E-2,-1.014634445E-1
3.588955557E1,-1.656437367E-1,1.165098604E-2,-1.126483902E-1
3.590943270E1,-1.256309152E-1,-5.705654249E-2,-1.131810099E-1
3.592932614E1,-8.515206724E-2,-1.476679295E-1,-1.057243794E-1
3.594919401E1,-6.491263956E-2,-2.276269794E-1,-1.051917598E-1
3.596910406E1,-2.276935615E-2,-2.916075289E-1,-1.057243794E-1
3.598897083E1,3.954677656E-2,-3.262276053E-1,-1.275616586E-1
3.600887947E1,8.382052183E-2,-3.689035177E-1,-1.600512564E-1
3.602877124E1,8.754883707E-2,-4.744281471E-1,-1.739658713E-1
3.604867489E1,9.979902208E-2,-6.279548407E-1,-1.653774232E-1
3.606856677E1,1.515294015E-1,-7.622408271E-1,-1.563229412E-1
3.608842979E1,1.957365721E-1,-8.384715319E-1,-1.739658713E-1
3.610831697E1,2.133129090E-1,-8.832113147E-1,-2.256296724E-1
3.612825031E1,2.015953511E-1,-9.328112602E-1,-3.082517982E-1
3.614809776E1,1.994648874E-1,-1.031411886E0,-4.340158701E-1
3.616799244E1,2.026605755E-1,-1.172155738E0,-6.248257160E-1
3.618787406E1,1.904104054E-1,-1.246189475E0,-8.732247949E-1
3.620778374E1,1.499315500E-1,-1.192927837E0,-1.201582909E0
3.622768817E1,1.408104897E-1,-1.084740162E0,-1.595985413E0
3.624757656E1,1.898777932E-1,-1.140132189E0,-2.027737617E0
3.626743744E1,3.113809228E-1,-1.534534693E0,-2.433325052E0
3.628735552E1,5.155062079E-1,-2.150705576E0,-2.826662302E0
3.630724520E1,8.278858066E-1,-2.734852552E0,-3.311143637E0
3.632714270E1,1.291062474E0,-3.141571999E0,-3.930510044E0
3.634702598E1,1.816621780E0,-3.150093794E0,-4.670314312E0
3.636692052E1,2.285657167E0,-2.394843578E0,-5.538612366E0
3.638681062E1,2.692309856E0,-8.778851628E-1,-6.566229343E0
3.640672130E1,3.048896551E0,7.189657092E-1,-7.655630112E0
3.642658848E1,3.294033289E0,1.645318985E0,-8.466871262E0
3.644647833E1,3.345763683E0,1.884130955E0,-8.416273117E0
3.646638354E1,3.080853701E0,2.112223864E0,-7.398775578E0
3.648626151E1,2.352234364E0,2.750764608E0,-5.848262310E0
3.650617197E1,8.177660704E-1,2.950628996E0,-3.941162348E0
3.652606583E1,-1.595652461E0,1.802041411E0,-1.828871965E0
3.654592984E1,-4.052812099E0,-1.924077235E-2,1.637795754E-2
3.656581437E1,-5.450863838E0,-1.314430952E0,1.825875998E0
3.658573541E1,-6.380945683E0,-1.862892866E0,3.269799232E0
3.660560104E1,-8.112149239E0,-1.050586104E0,3.080054760E0
3.662553729E1,-1.003575993E1,1.470687389E-1,1.686796546E0
3.664538432E1,-1.158887005E1,-7.867411375E-1,2.439383566E-1
3.666530604E1,-1.227168369E1,-3.275857925E0,-1.097123384E0
3.668519468E1,-1.207874393E1,-5.007593632E0,-1.350249410E0
3.670508729E1,-1.209845066E1,-5.010256767E0,-3.594495654E-1
3.672496947E1,-1.090771961E1,-3.716664553E0,9.746882319E-1
3.674484145E1,-8.511878014E0,-2.360689640E0,2.699500322E0
3.676474651E1,-6.408641815E0,-1.189732075E0,4.062865257E0
3.678466343E1,-4.915717602E0,-6.564498693E-2,4.832030296E0
3.680455578E1,-3.736171722E0,1.165098667E0,4.863454342E0
3.682441885E1,-2.732589006E0,1.933131576E0,4.462660789E0
3.684430796E1,-1.730537653E0,1.897978902E0,4.020788670E0
3.686422375E1,-5.350132585E-1,1.237068415E0,3.787835360E0
3.688411307E1,7.149044871E-1,4.956662357E-1,3.668995380E0
3.690397119E1,1.767554522E0,-4.746944830E-2,3.490435839E0
3.692388125E1,2.665146351E0,-6.204982400E-1,3.294299603E0
3.694376401E1,3.431049109E0,-1.392792225E0,3.131186008E0
3.696364838E1,3.993358850E0,-2.367613554E0,2.893505812E0
3.698356708E1,4.254008293E0,-3.560474873E0,2.695705414E0
3.700341828E1,4.219321251E0,-4.375444412E0,2.522538424E0
3.702334041E1,3.967793226E0,-4.447947025E0,2.226669788E0
3.704322182E1,3.612271786E0,-4.296550751E0,1.894117475E0
3.706313270E1,3.182649851E0,-4.304007530E0,1.506639004E0
3.708302052E1,2.700831652E0,-4.372249126E0,1.059440851E0
3.710289515E1,2.281928778E0,-4.394618988E0,6.479279995E-1
3.712281260E1,1.963157892E0,-4.323248386E0,2.983318269E-1
3.714272453E1,1.752641201E0,-4.218722343E0,1.336201727E-1
3.716260916E1,1.585799098E0,-3.981574774E0,3.129122034E-2
3.718250489E1,1.370488882E0,-3.603150606E0,-1.030612960E-1
3.720234932E1,1.122089863E0,-3.168202639E0,-1.910095960E-1
3.722225250E1,9.264864326E-1,-2.639980316E0,-2.602497339E-1
3.724215500E1,8.993229866E-1,-2.127270460E0,-2.181730419E-1
3.726205197E1,9.163666964E-1,-1.712561846E0,-1.099853069E-1
3.728193708E1,8.603754044E-1,-1.407705426E0,-6.624417752E-2
3.730181364E1,7.761554122E-1,-1.169958711E0,-6.943988055E-2
3.732169328E1,7.165023685E-1,-9.759531617E-1,-8.601756394E-2
3.734160718E1,6.722286344E-1,-8.304823041E-1,-1.046591476E-1
3.736158349E1,6.115103364E-1,-7.159031630E-1,-1.185071766E-1
3.738136536E1,5.565842390E-1,-6.145728827E-1,-1.238333359E-1
3.740128224E1,5.032560229E-1,-5.250933170E-1,-1.270290315E-1
3.742116885E1,4.356137216E-1,-4.189694524E-1,-9.880036116E-2
3.744105953E1,3.721657991E-1,-2.697702646E-1,-8.974587917E-2
3.746095885E1,3.103156984E-1,-1.610499173E-1,-6.591129117E-3
3.748081776E1,2.639780641E-1,-5.013252795E-2,8.828118443E-2
3.750073057E1,2.292914093E-1,8.149032295E-2,1.458703429E-1
3.752063375E1,1.808233112E-1,1.864823550E-1,1.890122890E-1
3.754054177E1,1.322886199E-1,2.462019771E-1,2.274272442E-1
3.756046614E1,1.035273373E-1,2.525933683E-1,3.009949028E-1
3.758029890E1,6.571156532E-2,2.600499988E-1,3.990629315E-1
3.760019880E1,2.263620263E-3,3.021267056E-1,4.918047786E-1
3.762008614E1,-6.597787142E-2,3.352155089E-1,5.509251952E-1
3.763997734E1,-8.248898387E-2,3.373459876E-1,5.658384562E-1
3.765985119E1,-3.342168778E-2,3.090507388E-1,5.216313004E-1
3.767976624E1,3.262276202E-2,2.893439233E-1,4.209001958E-1
3.769965760E1,4.913387448E-2,3.309545815E-1,2.652430236E-1
3.771954770E1,5.559184775E-2,3.895424008E-1,1.058575287E-1
3.773943802E1,6.730940938E-2,3.996621072E-1,-1.564561017E-2
3.775931661E1,3.688369319E-2,3.538571000E-1,-1.051917598E-1
3.777922854E1,-3.661738336E-2,2.648435533E-1,-1.467358470E-1
3.779910072E1,-1.091198102E-1,1.646450758E-1,-1.275616586E-1
3.781900322E1,-1.390129030E-1,1.166430190E-1,-1.121157780E-1
3.783888057E1,-1.282940060E-1,1.214365661E-1,-1.238333359E-1
3.785879979E1,-9.953270853E-2,9.161003679E-2,-1.078548431E-1
3.787867395E1,-6.651048362E-2,-2.563216910E-2,-6.571156532E-2
3.789858250E1,-3.881442919E-2,-1.844850481E-1,-4.014597088E-2
3.791842796E1,-2.117150649E-2,-3.006620109E-1,-4.547213390E-2
3.793832786E1,-1.051917579E-2,-3.049229383E-1,-7.103772461E-2
3.795822625E1,1.731003635E-3,-2.036592364E-1,-9.347419441E-2
3.797812479E1,1.238333434E-2,-5.439346284E-2,-1.254311949E-1
3.799803374E1,2.410089783E-2,-2.190385386E-2,-1.685731262E-1
3.801788942E1,3.209014609E-2,-1.935395300E-1,-2.128468752E-1
3.803779182E1,5.019910634E-2,-3.630447388E-1,-2.527931035E-1
3.805766213E1,9.287500381E-2,-3.918060362E-1,-2.949363887E-1
3.807757968E1,1.600512564E-1,-3.784905970E-1,-3.631778955E-1
3.809745859E1,2.527931035E-1,-4.323514402E-1,-4.607132971E-1
3.811735895E1,3.508611321E-1,-5.661047697E-1,-5.673031807E-1
3.813725041E1,4.563857615E-1,-7.078473568E-1,-6.722952127E-1
3.815716177E1,5.427362323E-1,-8.043841124E-1,-7.815481424E-1
3.817700692E1,6.013240218E-1,-9.013868570E-1,-8.673660159E-1
3.819693734E1,6.253583431E-1,-9.999874830E-1,-9.633035660E-1
3.821680468E1,6.333476305E-1,-1.143860579E0,-1.149852514E0
3.823670453E1,6.429346800E-1,-1.416227341E0,-1.465361238E0
3.825662192E1,6.871418953E-1,-1.727541685E0,-1.815023899E0
3.827651822E1,8.699625134E-1,-1.818685651E0,-2.151903868E0
3.829638010E1,1.094926357E0,-1.628341794E0,-2.478065014E0
3.831628520E1,1.334736943E0,-1.246189475E0,-2.811216593E0
3.833613828E1,1.631670713E0,-6.998580694E-1,-3.262675524E0
3.835605875E1,2.054834604E0,-1.018629074E-1,-3.864399195E0
3.837594036E1,2.644307852E0,4.934692085E-1,-4.613324642E0
3.839584364E1,3.289772511E0,1.240796685E0,-5.522567272E0
3.841571932E1,3.739101171E0,2.127669811E0,-6.405246258E0
3.843561463E1,3.777516127E0,2.793373823E0,-6.987795353E0
3.845555609E1,3.316469908E0,2.558356762E0,-7.372611046E0
3.847538942E1,2.630992413E0,8.362079263E-1,-7.643912315E0
3.849528411E1,1.539994121E0,-2.139520645E0,-7.348110676E0
3.851520609E1,-1.219026074E-1,-5.154729366E0,-5.978819847E0
3.853506109E1,-1.592989445E0,-6.372090816E0,-3.706145525E0
3.855496671E1,-1.926141024E0,-4.743749142E0,-1.333205700E0
3.857487385E1,-1.920814872E0,-1.667289376E0,1.565759420E0
3.859476390E1,-3.683975220E0,1.571218729E0,3.833707094E0
3.861467046E1,-6.897983074E0,3.234180689E0,3.916329145E0
3.863459255E1,-9.240496635E0,5.436017513E-1,2.709619999E0
3.865441468E1,-1.000533390E1,-4.793881416E0,1.396786809E0
3.867433635E1,-1.001492119E1,-7.693912029E0,1.252913713E0
3.869420770E1,-1.020573139E1,-6.367829800E0,2.412686110E0
3.871410411E1,-1.009328270E1,-2.794572353E0,3.440369844E0
3.873401291E1,-8.971858978E0,1.555905938E-1,3.880044699E0
3.875386546E1,-7.957024574E0,1.552577138E0,4.011734009E0
3.877376265E1,-7.276939869E0,1.899044156E0,3.685506582E0
3.879365677E1,-6.405446053E0,1.350582361E0,3.182916164E0
3.881355348E1,-5.026568413E0,1.550579816E-1,3.047498465E0
3.883349463E1,-3.295431614E0,-8.459281921E-1,3.181318521E0
3.885334083E1,-1.454442501E0,-1.170491338E0,3.344365597E0
3.887325125E1,2.335523367E-1,-7.723605037E-1,3.263940573E0
3.889311083E1,1.567157507E0,-2.776263654E-2,2.892973185E0
3.891301755E1,2.512152433E0,3.362807631E-1,2.657889605E0
3.893288500E1,3.361742258E0,-1.664426643E-3,2.674933195E0
3.895279234E1,4.074915886E0,-9.173653722E-1,2.841242790E0
3.897270062E1,4.293421745E0,-1.970547915E0,3.033117771E0
3.899260666E1,3.973652124E0,-2.795637608E0,3.009682655E0
3.901249385E1,3.450755835E0,-3.552485466E0,2.709087372E0
3.903237161E1,3.007818699E0,-4.410131454E0,2.324738026E0
3.905225593E1,2.730125666E0,-5.159522533E0,1.915954709E0
3.907214645E1,2.557491302E0,-5.579490662E0,1.474082828E0
3.909204291E1,2.376801252E0,-5.559251308E0,1.049321055E0
3.911191703E1,2.098575592E0,-5.083824635E0,6.772884727E-1
3.913183437E1,1.771815419E0,-4.178775787E0,3.425389826E-1
3.915169322E1,1.484002709E0,-3.002958536E0,5.951989442E-2
3.917160130E1,1.344324112E0,-1.947645426E0,-7.316819578E-2
3.919149213E1,1.180744171E0,-1.233406663E0,-7.050511241E-2
3.921140010E1,9.376713634E-1,-8.496564627E-1,-8.015878499E-2
3.923129583E1,6.977941990E-1,-7.409361601E-1,-8.655018359E-2
3.925119489E1,5.501928329E-1,-8.560478687E-1,-5.133091658E-2
3.927107197E1,4.862123132E-1,-1.142262697E0,3.661738336E-2
3.929094224E1,4.227643609E-1,-1.413031578E0,4.141093418E-2
3.931083265E1,3.577851355E-1,-1.490860224E0,-2.949363925E-2
3.933074072E1,3.375457227E-1,-1.293658972E0,-1.009308323E-1
3.935065468E1,3.892095089E-1,-9.546484947E-1,-1.243659556E-1
3.937057171E1,4.179708064E-1,-5.948660374E-1,-8.335448056E-2
3.939042817E1,4.035901725E-1,-2.671071887E-1,-7.962616533E-2
3.941028666E1,3.647091687E-1,-6.351451576E-2,-8.814803511E-2
3.943020151E1,3.359478712E-1,-2.197043039E-3,-5.346138403E-2
3.945009552E1,2.943372130E-1,-3.042571805E-2,-7.123745978E-3
3.946998593E1,2.308892608E-1,-8.908011019E-2,4.194355011E-2
3.948987338E1,1.978670359E-1,-9.760197252E-2,6.910699606E-2
3.950976338E1,1.797580719E-1,-3.095833398E-2,8.082455397E-2
3.952965474E1,1.429409534E-1,7.350108027E-2,1.047922969E-1
3.954955656E1,9.234238416E-2,1.689060181E-1,1.091198102E-1
3.956947151E1,4.540555924E-2,1.939389855E-1,8.987903595E-2
3.958932130E1,8.122402243E-3,1.854171306E-1,4.673709720E-2
3.960923015E1,-3.235645220E-2,1.987325400E-1,-4.334167019E-2
3.962909640E1,-8.035851270E-2,1.880802065E-1,-1.440727711E-1
3.964898395E1,-1.107176542E-1,1.022623703E-1,-2.245644331E-1
3.966888046E1,-9.154346585E-2,-2.989310212E-2,-2.762948275E-1
3.968877046E1,-5.479292199E-2,-1.513962448E-1,-2.853493094E-1
3.970871067E1,-3.022598661E-2,-2.223008126E-1,-2.442712486E-1
3.972860687E1,-2.649767138E-2,-2.324205339E-1,-1.862160414E-1
3.974844302E1,-4.893414304E-2,-2.164420336E-1,-1.179745570E-1
3.976836187E1,-6.651048362E-2,-1.727674752E-1,-7.796174288E-2
3.978825458E1,-5.905385688E-2,-1.274285018E-1,-5.985277891E-2
3.980812536E1,-4.733629152E-2,-1.061238423E-1,-8.721595630E-3
3.982802588E1,-5.266245827E-2,-8.055824786E-2,4.833494872E-2
3.984791598E1,-6.171693653E-2,-3.575188294E-2,7.390054315E-2
3.986779255E1,-4.786890745E-2,1.531272428E-3,7.656362653E-2
3.988769713E1,-1.584534161E-2,4.367455468E-2,2.756290510E-2
3.990757088E1,1.611164957E-2,6.018566713E-2,-3.215672076E-2
3.992748843E1,2.889444493E-2,3.462007269E-2,-5.825493112E-2
3.994736588E1,1.770949923E-2,-9.121057577E-3,-5.186353251E-2
3.996728182E1,2.410089783E-2,-6.404713541E-2,-5.239614844E-2
3.998713921E1,6.464632601E-2,-1.151783243E-1,-5.505923182E-2
4.000705015E1,1.184405982E-1,-1.258306503E-1,-5.559184775E-2
4.002693255E1,1.637795717E-1,-1.194392517E-1,-8.282186836E-2
4.004681578E1,2.079867423E-1,-1.743653268E-1,-1.509967744E-1
4.006671989E1,2.815544009E-1,-3.513271809E-1,-2.522605062E-1
4.008661411E1,4.025249183E-1,-6.567161679E-1,-3.519263566E-1
4.010650651E1,5.027233958E-1,-9.594420791E-1,-4.740287066E-1
4.012638635E1,5.794867873E-1,-1.143327951E0,-6.659038067E-1
4.014628625E1,6.557174921E-1,-1.267560720E0,-9.153680801E-1
4.016614932E1,7.133066654E-1,-1.402911901E0,-1.212767839E0
4.018607312E1,7.985919118E-1,-1.522284627E0,-1.544787645E0
4.020596031E1,9.674978852E-1,-1.594254375E0,-1.892852545E0
4.022583598E1,1.168494105E0,-1.605971932E0,-2.254765511E0
4.024572932E1,1.421620011E0,-1.548982024E0,-2.628928423E0
4.026561838E1,1.741456270E0,-1.423683882E0,-3.062811136E0
4.028553312E1,2.120945454E0,-1.188134313E0,-3.591499805E0
