"Time (s)","Gyroscope x (rad/s)","Gyroscope y (rad/s)","Gyroscope z (rad/s)"
4.330860900E-2,1.541725039E0,-8.342106342E-1,8.519867063E-1
6.323902600E-2,1.504907966E0,-7.324143052E-1,7.128406167E-1
8.307959800E-2,1.461233377E0,-6.428681016E-1,6.787531376E-1
1.029686090E-1,1.388731003E0,-4.312862158E-1,6.456643939E-1
1.228553280E-1,1.308239341E0,-1.972678453E-1,6.254249215E-1
1.427747550E-1,1.220291018E0,4.194355104E-3,6.494592428E-1
1.626640260E-1,1.137136221E0,2.360822707E-1,6.254249215E-1
1.825454840E-1,1.083341956E0,5.111120939E-1,5.705654621E-1
2.024386610E-1,1.010306954E0,7.285528183E-1,5.278895497E-1
2.223519420E-1,9.324783683E-1,8.196967840E-1,4.601806700E-1
2.422567340E-1,8.802819252E-1,7.727599740E-1,3.797555864E-1
2.621072030E-1,8.392038941E-1,6.464632750E-1,2.870137095E-1
2.819790780E-1,8.104426265E-1,5.180361271E-1,1.675744653E-1
3.018846510E-1,7.800168991E-1,4.119788706E-1,5.406057462E-2
3.217906920E-1,7.704297900E-1,3.133116663E-1,-5.359453708E-2
3.416798590E-1,7.773538232E-1,2.035260797E-1,-1.874144375E-1
3.615550150E-1,7.603100538E-1,8.095771074E-2,-4.282902479E-1
3.814829320E-1,6.691660881E-1,-4.587159678E-2,-6.676347852E-1
4.013667340E-1,6.228284240E-1,2.922733128E-2,-8.674991727E-1
4.212474110E-1,5.545869470E-1,3.149760962E-1,-1.126550555E0
4.412154840E-1,5.173037648E-1,6.912696362E-1,-1.451646328E0
4.610118380E-1,4.874106944E-1,9.113734365E-1,-1.902572751E0
4.809148070E-1,4.031907022E-1,9.364064336E-1,-2.360955954E0
5.007889730E-1,2.433391660E-1,1.001452208E0,-2.788979769E0
5.207252760E-1,7.436657697E-2,1.450780749E0,-3.087977409E0
5.405786610E-1,-6.477948278E-2,2.428797960E0,-3.135380268E0
5.604626710E-1,-1.809564531E-1,3.854612350E0,-2.995235443E0
5.803719940E-1,-1.900109351E-1,5.458920002E0,-2.651964188E0
6.002694420E-1,-1.127149686E-1,6.891125679E0,-2.223474264E0
6.202345460E-1,-3.275591508E-2,7.791314125E0,-1.705371499E0
6.400535050E-1,3.595161438E-2,7.990113258E0,-1.144659519E0
6.599498070E-1,8.022536337E-2,7.389454842E0,-5.460650921E-1
6.798260570E-1,1.159106717E-1,6.079884052E0,6.151720881E-2
6.997028800E-1,1.543256342E-1,4.400411129E0,5.497268438E-1
7.196107960E-1,1.878804713E-1,2.923998117E0,9.282174110E-1
7.394941820E-1,1.884130985E-1,2.047710657E0,1.219758391E0
7.593690780E-1,1.537930220E-1,1.830802679E0,1.392459273E0
7.792673070E-1,1.212368309E-1,2.073343039E0,1.478210568E0
7.991797550E-1,8.981245756E-2,2.419743299E0,1.519288659E0
8.190711610E-1,3.435376659E-2,2.450701714E0,1.555506468E0
8.389484530E-1,7.170350105E-2,1.677808642E0,1.646117926E0
8.588232440E-1,2.348173112E-1,-1.428743750E-1,1.843319178E0
8.787238170E-1,5.721632838E-1,-2.439050674E0,2.053369761E0
8.986235050E-1,1.208040833E0,-4.999604702E0,2.374204636E0
9.185059530E-1,2.204766035E0,-7.512689114E0,2.802228689E0
9.384249630E-1,3.599622011E0,-9.320655823E0,3.229120731E0
9.583087650E-1,5.584484100E0,-9.993816376E0,3.575587749E0
9.782161090E-1,7.771940231E0,-9.761928558E0,3.632111788E0
9.980831920E-1,9.526045799E0,-9.319058418E0,3.592098951E0
1.017971161E0,9.977504730E0,-8.848424911E0,3.203555107E0
1.037830171E0,8.753751755E0,-7.554299831E0,2.763813734E0
1.057756005E0,6.716627121E0,-4.806664467E0,3.115074158E0
1.077637046E0,4.310132504E0,-1.876740813E0,4.353274345E0
1.097528036E0,3.909405172E-1,1.602643132E0,5.197005749E0
1.117401786E0,-4.516921043E0,4.777237415E0,4.263728142E0
1.137287932E0,-7.995772362E0,4.578438282E0,1.201582909E0
1.157214859E0,-1.013475990E1,2.012557983E0,-2.739912510E0
1.177101526E0,-1.131796741E1,-3.406748474E-1,-5.312716484E0
1.196995484E0,-1.203273869E1,-7.750235796E-1,-6.263037682E0
1.216864182E0,-1.231629086E1,-7.842778414E-2,-6.188404560E0
1.236761890E0,-1.192881203E1,3.613137305E-1,-5.531754971E0
1.256666890E0,-1.094753265E1,3.888100386E-2,-4.608597755E0
1.276544390E0,-9.679039955E0,-5.985943675E-1,-2.508623838E0
1.296414598E0,-8.235116959E0,8.074466586E-1,-1.045526266E0
1.316335484E0,-6.795454502E0,2.477865219E0,-5.183690190E-1
1.336233609E0,-5.598398685E0,3.162210703E0,-2.183061987E-1
1.356127619E0,-4.461462021E0,3.600354433E0,-1.410102248E-1
1.376008817E0,-3.183848381E0,3.791697025E0,-1.330209672E-1
1.395876369E0,-1.995314598E0,3.378120184E0,-2.763614058E-1
1.415771942E0,-1.008176446E0,2.739579678E0,-2.886781394E-1
1.435672463E0,-8.714937419E-2,2.698501587E0,1.004647911E-1
1.455562671E0,6.985265613E-1,2.871202469E0,6.414034367E-1
1.475445901E0,1.103581429E0,2.229466200E0,1.095525622E0
1.495357359E0,1.255510330E0,1.254644752E0,1.439329505E0
1.515221578E0,1.437798262E0,1.070226312E0,1.915821552E0
1.535159182E0,1.525679946E0,1.764691710E0,2.521872520E0
1.555005223E0,1.655238986E0,2.475202084E0,2.931720972E0
1.574924651E0,1.444722295E0,2.538650036E0,3.349625349E0
1.594815588E0,9.730237722E-1,2.597770452E0,3.708342552E0
1.614681682E0,7.837451696E-1,2.715012550E0,3.618263721E0
1.634581057E0,8.668999672E-1,2.034927845E0,3.575587749E0
1.654467463E0,8.296167850E-1,1.018495917E0,3.788234949E0
1.674383817E0,9.868718386E-1,7.482596040E-1,3.704081535E0
1.694282098E0,1.175018549E0,7.994573712E-1,3.300025225E0
1.714159338E0,1.094526887E0,6.310173869E-1,2.937047243E0
1.734039494E0,9.425980449E-1,8.633713722E-1,2.517079115E0
1.753930848E0,9.553808570E-1,1.657569170E0,2.006965637E0
1.773812411E0,1.090265989E0,2.252901316E0,1.606704235E0
1.793708401E0,1.171290278E0,2.241183758E0,1.328478694E0
1.813619026E0,1.088135481E0,1.775344014E0,1.097123384E0
1.833499755E0,9.335435629E-1,1.227947354E0,8.988569379E-1
1.853383921E0,7.826799750E-1,8.031857014E-1,6.542528272E-1
1.873252203E0,5.625761747E-1,3.533244729E-1,3.994623721E-1
1.893186005E0,3.120467067E-1,-1.530606747E-1,3.067205250E-1
1.913053192E0,9.300816059E-2,-5.804854035E-1,3.301556706E-1
1.932959963E0,-4.021254554E-2,-7.606429458E-1,3.147097826E-1
1.952824078E0,-6.477948278E-2,-6.492595077E-1,1.798246503E-1
1.972723817E0,-1.004647911E-1,-4.013931155E-1,4.527240526E-3
1.992630171E0,-1.681736708E-1,-1.914090663E-1,-9.786828607E-2
2.012496890E0,-2.288919389E-1,-3.255618364E-2,-1.724345982E-1
2.032395536E0,-2.875463367E-1,5.006595328E-2,-2.603828907E-1
2.052312203E0,-3.109814525E-1,7.390053943E-3,-3.734307587E-1
2.072185171E0,-3.035248220E-1,-1.300915778E-1,-4.389425814E-1
2.092061057E0,-2.587850392E-1,-2.537917793E-1,-4.597146213E-1
2.111944494E0,-2.097177505E-1,-3.299559355E-1,-4.298880994E-1
2.131852463E0,-1.905435622E-1,-3.710339665E-1,-3.696358502E-1
2.151712723E0,-1.948044896E-1,-4.109802246E-1,-3.296896219E-1
2.171602619E0,-1.612496525E-1,-4.451342523E-1,-2.348173112E-1
2.191501421E0,-1.015300229E-1,-4.414059222E-1,-8.075797558E-2
2.211402463E0,-5.785546824E-2,-3.699687421E-1,7.003907114E-2
2.231284963E0,-4.394086078E-2,-1.717022508E-1,1.340196282E-1
2.251216109E0,-5.412715301E-2,7.882724702E-2,7.643046975E-2
2.271081005E0,-6.957302988E-2,1.667755395E-1,-1.398118329E-3
2.290982880E0,-9.460600466E-2,-4.860125482E-3,-4.720313847E-2
2.310841578E0,-1.105845049E-1,-2.426068187E-1,-7.543181628E-2
2.330759442E0,-1.260303855E-1,-3.491967022E-1,-9.087768942E-2
2.350656005E0,-1.452711523E-1,-3.219666779E-1,-8.981245756E-2
2.370552984E0,-1.734998226E-1,-2.318879068E-1,-5.572500080E-2
2.390448192E0,-2.219679356E-1,-1.519954354E-1,-2.430062927E-2
2.410345588E0,-2.683721483E-1,-1.663760841E-1,-3.335510939E-2
2.430219598E0,-3.131119311E-1,-2.697702646E-1,-6.637733430E-2
2.450107828E0,-3.499290347E-1,-3.518597782E-1,-1.133141592E-1
2.470006005E0,-3.669727743E-1,-3.155752718E-1,-1.335535944E-1
2.489900484E0,-3.696358502E-1,-1.914090663E-1,-1.250317246E-1
2.509814234E0,-3.680379987E-1,-1.002650559E-1,-9.786828607E-2
2.529679286E0,-3.813534081E-1,-1.050586104E-1,-4.826837033E-2
2.549559807E0,-3.856143653E-1,-5.818835273E-2,2.316881903E-2
2.569446057E0,-3.722989559E-1,1.198387146E-1,1.356174797E-1
2.589325171E0,-3.488638103E-1,3.160413206E-1,2.741643488E-1
2.609219911E0,-3.163076341E-1,4.529903531E-1,4.106473327E-1
2.629141994E0,-2.406760901E-1,5.281558633E-1,5.737611651E-1
2.649033921E0,-1.276282370E-1,6.001256704E-1,7.394714355E-1
2.668916109E0,3.914731368E-2,7.312158942E-1,8.972591162E-1
2.688788557E0,2.816875577E-1,8.665670753E-1,1.051318407E0
2.708683088E0,5.332822800E-1,8.228924870E-1,1.180810809E0
2.728592463E0,7.459294200E-1,5.446669459E-1,1.245856643E0
2.748476890E0,9.410002232E-1,1.470687389E-1,1.277813554E0
2.768382984E0,1.180344820E0,-1.983330697E-1,1.327413559E0
2.788270432E0,1.477744460E0,-2.894770801E-1,1.347120285E0
2.808163401E0,1.709033251E0,-2.607157826E-1,1.345522404E0
2.828036161E0,1.876940608E0,-3.342834413E-1,1.354576945E0
2.847927411E0,2.045913219E0,-4.973306656E-1,1.313565493E0
2.867812307E0,2.215950966E0,-7.329468727E-1,1.258639336E0
2.887705432E0,2.289518595E0,-9.748879671E-1,1.073155642E0
2.907595744E0,2.276203156E0,-1.174818873E0,8.018541336E-1
2.927490744E0,2.210092306E0,-1.394922614E0,6.280879974E-1
2.947371421E0,2.239386082E0,-1.635332465E0,6.707639098E-1
2.967277567E0,2.405163050E0,-1.820816159E0,7.880061269E-1
2.987180171E0,2.619407892E0,-2.002571583E0,9.159006476E-1
3.007033453E0,2.897633553E0,-2.287188530E0,1.083808064E0
3.026930692E0,3.329918385E0,-2.710352182E0,1.287933350E0
3.046838244E0,3.869858503E0,-3.429917097E0,1.556039095E0
3.066738088E0,4.375111580E0,-4.498079777E0,1.925408721E0
3.086616890E0,4.907062531E0,-5.588012695E0,2.415282726E0
3.106506994E0,5.658584595E0,-6.551715851E0,3.143302917E0
3.126409755E0,6.366431713E0,-7.551037312E0,4.088364124E0
3.146267671E0,6.453847408E0,-7.588387012E0,4.507799625E0
3.166213661E0,5.319041252E0,-5.394007206E0,4.563258648E0
3.186111369E0,2.339584589E0,-4.829500318E-1,5.309454441E0
3.205948765E0,-2.604494810E0,5.825626373E0,5.426163673E0
3.225870171E0,-7.735722065E0,9.358338356E0,2.990375519E0
3.245749755E0,-1.072902679E1,8.071137428E0,-2.152036905E0
3.265643296E0,-1.140272045E1,3.091905355E0,-7.210695267E0
3.285544078E0,-1.140644836E1,-2.714613199E0,-9.178580284E0
3.305401161E0,-1.120232296E1,-5.534750938E0,-8.114146233E0
3.325325276E0,-1.018269539E1,-4.273115635E0,-5.981083870E0
3.345215067E0,-9.039434433E0,-2.385789156E0,-3.753681421E0
3.365109078E0,-8.142374992E0,-1.548449397E0,-1.012969971E0
3.384959182E0,-6.969753265E0,4.487294257E-1,1.744984835E-1
3.404876734E0,-5.448600292E0,1.442258954E0,6.649051309E-1
3.424785901E0,-4.286630630E0,1.367626071E0,9.394024014E-1
3.444662567E0,-3.537771940E0,1.334071159E0,9.564461112E-1
3.464529026E0,-2.630060434E0,1.145857811E0,1.157908320E0
3.484452359E0,-1.671750069E0,1.232208252E0,1.335402727E0
3.504329338E0,-8.226927519E-1,1.946979642E0,1.552310824E0
3.524262359E0,-2.316881903E-2,3.064142704E0,1.822547078E0
3.544148296E0,6.121761203E-1,3.865797281E0,1.937658906E0
3.563997098E0,9.948610663E-1,3.881242990E0,1.987791419E0
3.583910692E0,1.307706714E0,3.422327280E0,2.204166889E0
3.603791578E0,1.478809714E0,3.345564127E0,2.452033281E0
3.623663765E0,1.514495015E0,3.681911469E0,2.474935770E0
3.643547567E0,1.614160895E0,3.612071991E0,2.283060789E0
3.663453401E0,1.671217442E0,3.002891779E0,2.177003384E0
3.683359963E0,1.437265635E0,2.506093740E0,2.247375488E0
3.703254338E0,1.129679680E0,2.369677544E0,2.194047213E0
3.723126213E0,1.073754907E0,2.151104927E0,1.986726165E0
3.743029338E0,1.068428755E0,1.795650005E0,1.892919064E0
3.762935588E0,9.895349145E-1,1.734332561E0,1.845982194E0
3.782812567E0,1.020426631E0,1.851574779E0,1.645052671E0
3.802696005E0,1.060372949E0,1.556305408E0,1.508636236E0
3.822600588E0,9.623048902E-1,8.740902543E-1,1.553908706E0
3.842462151E0,8.056490421E-1,3.469330668E-1,1.562430501E0
3.862382463E0,7.262226343E-1,2.382127345E-1,1.321022153E0
3.882267567E0,6.638398767E-1,2.056565434E-1,1.027350664E0
3.902200536E0,4.810192883E-1,1.910761744E-2,8.684977889E-1
3.922043296E0,2.683721483E-1,-8.694964647E-2,7.603100538E-1
3.941926630E0,1.334870160E-1,1.603841484E-1,5.145741105E-1
3.961812151E0,4.340824485E-2,4.157072008E-1,2.730991244E-1
3.981697984E0,-1.517957076E-2,4.556534290E-1,1.846182048E-1
4.001607151E0,-8.714937419E-2,2.733654380E-1,1.404110342E-1
4.021487567E0,-1.846847683E-1,3.661738476E-3,6.950645149E-2
4.041359390E0,-2.454696298E-1,-1.951373816E-1,-2.323539555E-2
4.061279130E0,-1.905435622E-1,-3.385443687E-1,-1.170424819E-1
4.081202619E0,-7.916013151E-2,-5.117112994E-1,-1.644453406E-1
4.101029338E0,-2.476666868E-2,-6.694989800E-1,-1.468690038E-1
4.120939338E0,-2.263620123E-2,-6.524552107E-1,-1.159772426E-1
4.140814703E0,-4.340824485E-2,-4.003278911E-1,-1.202381775E-1
4.160708817E0,-6.531210244E-2,-1.722348630E-1,-1.607170254E-1
4.180613765E0,-8.182321489E-2,-1.866155118E-1,-1.846847683E-1
4.200512359E0,-1.095192730E-1,-3.428052962E-1,-1.729672104E-1
4.220404442E0,-1.207042187E-1,-4.568518102E-1,-1.639127284E-1
4.240310015E0,-1.191063672E-1,-4.861457348E-1,-1.649779677E-1
4.260205223E0,-1.313565522E-1,-4.696346223E-1,-1.601844132E-1
4.280049130E0,-1.527277827E-1,-4.280905128E-1,-1.633801162E-1
4.299954130E0,-1.740324497E-1,-4.019257426E-1,-1.697715074E-1
4.319835380E0,-1.990654171E-1,-3.912734091E-1,-1.426080763E-1
4.339724911E0,-2.086525112E-1,-3.417400718E-1,-1.255643368E-1
4.359628192E0,-2.075872868E-1,-2.697702646E-1,-1.202381775E-1
4.379524234E0,-2.059894353E-1,-1.972678453E-1,-1.308905035E-1
4.399412567E0,-1.889457107E-1,-1.546585262E-1,-1.287600398E-1
4.419314859E0,-1.612496525E-1,-1.493323594E-1,-1.047922969E-1
4.439212411E0,-1.404775977E-1,-1.615825295E-1,-8.555153012E-2
4.459080380E0,-1.377479434E-1,-1.589194536E-1,-7.969274372E-2
4.478993505E0,-1.495320797E-1,-1.514628232E-1,-6.904041767E-2
4.498894807E0,-1.489994675E-1,-1.525280476E-1,-6.477948278E-2
4.518786526E0,-1.452711523E-1,-1.327546686E-1,-5.998593569E-2
4.538650276E0,-1.410102248E-1,-7.363422960E-2,-6.211639941E-2
4.558535015E0,-1.191063672E-1,-2.563216910E-2,-5.945331976E-2
4.578437828E0,-9.247554094E-2,-2.882786840E-2,-5.572500080E-2
4.598360796E0,-7.489919662E-2,-4.427374899E-2,-5.679023638E-2
4.618280848E0,-6.531210244E-2,-4.587159678E-2,-4.826837033E-2
4.638113453E0,-6.584471464E-2,-5.925358832E-2,-2.536586113E-2
4.657994286E0,-6.904041767E-2,-8.748225868E-2,-5.126433913E-3
4.677900796E0,-7.596442848E-2,-1.178414002E-1,-1.930734841E-3
4.697805901E0,-7.649704814E-2,-1.316894293E-1,-1.398118329E-3
4.717667619E0,-7.170350105E-2,-1.061238423E-1,1.517957076E-2
4.737569703E0,-5.732285231E-2,-3.788235039E-2,2.742975019E-2
4.757453348E0,-4.234301299E-2,1.324883569E-2,3.382114694E-2
4.777342463E0,-3.701684624E-2,2.017285116E-2,3.488638252E-2
4.797254442E0,-3.541899845E-2,1.697715186E-2,2.370143496E-2
4.817136890E0,-3.541899845E-2,1.431406848E-2,2.157096937E-2
4.837034338E0,-2.796236612E-2,1.431406848E-2,2.742975019E-2
4.856918036E0,-2.529928461E-2,1.537930220E-2,4.660394415E-2
4.876801213E0,-2.742975019E-2,1.591191813E-2,7.216953486E-2
4.896673401E0,-2.956021577E-2,1.591191813E-2,8.335448056E-2
4.916592151E0,-2.583190054E-2,1.324883569E-2,7.270215452E-2
4.936464755E0,-2.742975019E-2,3.661738476E-3,5.459319428E-2
4.956372359E0,-4.340824485E-2,2.596505452E-3,4.500609636E-2
4.976262359E0,-4.986622185E-2,2.922733128E-2,3.914731368E-2
4.996154130E0,-4.607132822E-2,6.817491353E-2,4.820179567E-2
5.016062828E0,-4.826837033E-2,9.161003679E-2,6.311506033E-2
5.035952984E0,-5.465976894E-2,7.190322876E-2,7.802832127E-2
5.055803765E0,-5.998593569E-2,2.017285116E-2,1.111171171E-1
5.075719390E0,-7.702966034E-2,-2.197043039E-3,1.916087866E-1
5.095620171E0,-1.143128201E-1,1.059906855E-1,3.424058259E-1
5.115500744E0,-1.265629977E-1,3.650420308E-1,5.060522556E-1
5.135389338E0,-9.407339245E-2,7.221614122E-1,6.494592428E-1
5.155273609E0,-6.051855162E-2,9.907998443E-1,7.741581202E-1
5.175210640E0,-3.994623665E-3,9.828106165E-1,9.137701988E-1
5.195050796E0,1.420754492E-1,6.406044960E-1,1.137136221E0
5.214976109E0,4.053211510E-1,1.537930220E-2,1.440394759E0
5.234826838E0,7.555165291E-1,-6.939992905E-1,1.706902742E0
5.254741005E0,1.120092511E0,-1.458370566E0,1.876407981E0
5.274638609E0,1.426014185E0,-2.396441460E0,1.939789295E0
5.294533609E0,1.750643849E0,-3.534909248E0,1.988856673E0
5.314401057E0,2.275137901E0,-4.615321636E0,2.076804876E0
5.334319234E0,2.974929571E0,-5.331690788E0,2.137589693E0
5.354251890E0,3.846956015E0,-5.738343716E0,2.150905132E0
5.374088661E0,4.892149448E0,-6.192465782E0,2.194579840E0
5.393993817E0,6.042867184E0,-6.801646233E0,2.360356569E0
5.413852411E0,7.327404976E0,-7.234996319E0,2.562351465E0
5.433764703E0,8.559213638E0,-7.280867577E0,2.667343378E0
5.453652307E0,9.034108162E0,-7.351705551E0,2.373672009E0
5.473546161E0,8.041110992E0,-7.076675892E0,1.796448946E0
5.493457567E0,5.862709522E0,-4.637158871E0,1.942985058E0
5.513335276E0,3.157217503E0,9.145691395E-1,2.962679386E0
5.533239755E0,-1.293326020E0,6.823416710E0,2.888046503E0
5.553108869E0,-6.576948643E0,6.437536240E0,9.676310420E-1
5.572989703E0,-1.031218815E1,1.081943870E0,-1.998510361E0
5.592876682E0,-1.229498577E1,-2.018549919E0,-4.029776573E0
5.612795380E0,-1.288872051E1,-1.058042645E0,-4.545748711E0
5.632658661E0,-1.216276455E1,8.676322699E-1,-4.752004623E0
5.652546786E0,-1.073488617E1,5.324167609E-1,-4.515855789E0
5.672448244E0,-9.917252541E0,-1.978537202E0,-2.678595066E0
5.692363661E0,-8.904549599E0,-2.323939085E0,-1.207707971E-1
5.712254546E0,-7.371678829E0,4.044556618E-1,1.254911065E0
5.732124651E0,-6.028486729E0,3.052957773E0,1.485733747E0
5.752020953E0,-4.958260059E0,4.073118210E0,1.334337473E0
5.771896578E0,-3.895956516E0,4.072052956E0,1.232541203E0
5.791802567E0,-2.894437790E0,3.771990061E0,1.158973575E0
5.811684130E0,-1.953704000E0,3.588636875E0,1.065699100E0
5.831595067E0,-1.082809329E0,3.224061012E0,1.012903452E0
5.851455119E0,-4.581167698E-1,2.424004316E0,1.028415918E0
5.871364651E0,-5.998593569E-2,1.831867933E0,1.076884031E0
5.891245588E0,4.357468784E-1,1.668221474E0,9.915987849E-1
5.911228296E0,8.967930675E-1,1.561099052E0,8.807479739E-1
5.931021630E0,1.062503338E0,1.638927579E0,9.105744958E-1
5.950941421E0,1.091863871E0,2.074940681E0,9.884030819E-1
5.970804494E0,1.205377698E0,2.332327604E0,1.052383661E0
5.990700953E0,1.264564753E0,2.217748642E0,1.139266729E0
6.010581265E0,1.118494630E0,2.125539303E0,1.208040833E0
6.030478244E0,1.205910325E0,1.994449139E0,1.288465977E0
6.050366473E0,1.385002613E0,1.548316240E0,1.388731003E0
6.070277046E0,1.331674457E0,9.326781034E-1,1.606704235E0
6.090141890E0,1.134473205E0,3.842162490E-1,1.873744845E0
6.110032411E0,8.861407042E-1,1.657103151E-1,1.898777843E0
6.129929703E0,7.102441192E-1,1.667755395E-1,1.691456914E0
6.149828505E0,6.089804173E-1,1.390794814E-1,1.495853424E0
6.169708661E0,5.742937326E-1,1.113168523E-1,1.396187663E0
6.189595171E0,6.643725038E-1,1.619819999E-1,1.343924642E0
6.209496161E0,8.184318542E-1,3.069202602E-1,1.219758391E0
6.229398192E0,8.780848980E-1,4.247616827E-1,1.054514170E0
6.249308973E0,7.789516449E-1,4.290226102E-1,9.180311561E-1
6.269193192E0,6.260241270E-1,4.790885448E-1,7.778863907E-1
6.289078192E0,4.804866612E-1,5.686346889E-1,6.057181358E-1
6.308955692E0,3.355484009E-1,6.011908650E-1,4.569849670E-1
6.328839703E0,2.380129993E-1,6.427350044E-1,3.354818225E-1
6.348769130E0,1.868152469E-1,6.565830112E-1,2.246310115E-1
6.368652984E0,1.511299312E-1,5.953320861E-1,1.084540337E-1
6.388522619E0,9.407339245E-2,4.865451753E-1,7.190322969E-3
6.408439651E0,4.340824485E-2,3.916728795E-1,-7.543181628E-2
6.428354182E0,1.944050193E-2,3.208348751E-1,-1.292926520E-1
6.448253973E0,7.722939365E-3,2.419410497E-1,-1.484668553E-1
6.468072984E0,-1.304910425E-2,1.433404237E-1,-1.633801162E-1
6.488000901E0,-5.732285231E-2,4.194355104E-3,-1.575213373E-1
6.507882776E0,-1.020626426E-1,-1.519954354E-1,-1.229012609E-1
6.527794442E0,-1.265629977E-1,-2.623136342E-1,-7.543181628E-2
6.547652776E0,-1.207042187E-1,-2.862813771E-1,-4.826837033E-2
6.567537255E0,-9.726908803E-2,-2.527265251E-1,-5.732285231E-2
6.587448296E0,-7.862751186E-2,-2.286922187E-1,-7.969274372E-2
6.607322098E0,-7.862751186E-2,-2.500634491E-1,-8.501891047E-2
6.627223348E0,-8.768199384E-2,-2.788247466E-1,-8.342105895E-2
6.647126421E0,-9.886693954E-2,-2.777595222E-1,-9.413997084E-2
6.666992515E0,-1.047257185E-1,-2.703028917E-1,-1.122489274E-1
6.686906161E0,-1.121823564E-1,-2.910749316E-1,-1.021292135E-1
6.706802828E0,-1.100518852E-1,-2.969337106E-1,-8.182321489E-2
6.726691421E0,-1.105845049E-1,-2.548570037E-1,-7.010564953E-2
6.746587463E0,-1.084540337E-1,-2.121811062E-1,-4.826837033E-2
6.766448453E0,-1.095192730E-1,-1.924742907E-1,-4.454005510E-2
6.786354078E0,-1.164432839E-1,-2.175072730E-1,-4.880098626E-2
6.806258973E0,-1.127149686E-1,-2.852161527E-1,-2.589847706E-2
6.826152359E0,-1.153780520E-1,-3.304885328E-1,-1.205044892E-2
6.846014286E0,-1.105845049E-1,-2.804225981E-1,-1.737661287E-2
6.865941369E0,-1.009974033E-1,-1.722348630E-1,-2.643109486E-2
6.885827463E0,-7.969274372E-2,-9.866721183E-2,-3.442034125E-2
6.905716994E0,-6.158378348E-2,-9.706936032E-2,-2.802894451E-2
6.925587567E0,-6.158378348E-2,-1.130478531E-1,-1.098521519E-2
6.945498505E0,-5.945331976E-2,-9.067796171E-2,3.994623665E-3
6.965394963E0,-5.093145370E-2,-4.533898085E-2,3.169068322E-2
6.985261369E0,-3.648423031E-2,-1.977338828E-2,6.950645149E-2
7.005162046E0,-2.796236612E-2,-5.392742343E-3,1.207042187E-1
7.025052203E0,-1.677742042E-2,6.857437547E-3,1.776941866E-1
7.044949755E0,1.864157850E-3,2.975994721E-2,2.560553849E-1
7.064839755E0,-1.411433797E-2,9.640359133E-2,3.690366745E-1
7.084731942E0,-4.234301299E-2,2.131131887E-1,4.852802157E-1
7.104610119E0,-2.157096937E-2,2.888112962E-1,5.828156471E-1
7.124497619E0,6.637733430E-2,3.111811876E-1,6.472622156E-1
7.144379859E0,1.777607650E-1,3.575854003E-1,6.483940482E-1
7.164286890E0,3.029922247E-1,4.572512805E-1,6.206313968E-1
7.184211578E0,4.666386545E-1,5.420038700E-1,6.153052449E-1
7.204065536E0,6.734269857E-1,5.308189392E-1,6.419360638E-1
7.223973817E0,8.935973644E-1,4.428706169E-1,6.766226888E-1
7.243869130E0,1.093461752E0,3.410742879E-1,7.091122866E-1
7.263760276E0,1.308771968E0,2.291582525E-1,7.688319087E-1
7.283634338E0,1.550246954E0,3.135779873E-2,9.041830897E-1
7.303541838E0,1.776209474E0,-3.086512685E-1,1.087536335E0
7.323422411E0,1.952106118E0,-7.958621979E-1,1.270889521E0
7.343304078E0,2.097643614E0,-1.544721007E0,1.475014806E0
7.363228973E0,2.227668524E0,-2.554761648E0,1.741522789E0
7.383105067E0,2.564015865E0,-3.786504030E0,2.104501009E0
7.402987411E0,3.179587364E0,-5.117912292E0,2.392846346E0
7.422890588E0,4.031907082E0,-6.377949715E0,2.474403143E0
7.442749911E0,5.082426548E0,-7.472210407E0,2.399770260E0
7.462634859E0,6.384540558E0,-8.305289268E0,2.284125805E0
7.482533140E0,8.123200417E0,-8.891034126E0,2.267082214E0
7.502455276E0,9.366127968E0,-9.332905769E0,2.142915964E0
7.522363869E0,9.404009819E0,-8.866533279E0,1.031611562E0
7.542230328E0,7.536856651E0,-5.329493999E0,6.169030666E-1
7.562115067E0,4.240825653E0,3.255485296E0,2.767009258E0
7.582007151E0,7.203638554E-1,1.182721615E1,3.901815414E0
7.601902776E0,-1.900974870E0,1.143547630E1,2.158894539E0
7.621797463E0,-5.311584949E0,4.508598804E0,-2.300170898E0
7.641670848E0,-9.367193222E0,-3.325457811E0,-5.959779263E0
7.661576005E0,-1.239784813E1,-6.084278107E0,-6.458641052E0
7.681428973E0,-1.329916763E1,-3.665533304E0,-4.784493923E0
7.701341317E0,-1.236802101E1,-1.113501430E0,-2.371608257E0
7.721254546E0,-1.120818233E1,-5.293542147E-1,7.938649058E-1
7.741233036E0,-9.947079659E0,9.518522620E-1,3.022865057E0
7.761029494E0,-8.236182213E0,3.426055670E0,3.099095821E0
7.780934026E0,-6.554578304E0,4.532033920E0,2.425402403E0
7.800807723E0,-5.261518955E0,4.046487331E0,1.688793778E0
7.820717984E0,-4.104342937E0,2.680392504E0,1.068362117E0
7.840577046E0,-2.973331690E0,1.252514362E0,5.523899198E-1
7.860482880E0,-1.790057540E0,2.813546658E-1,1.414762586E-1
7.880402411E0,-7.102441192E-1,1.529275179E-1,-8.182321489E-2
7.900283713E0,2.310224175E-1,6.480611563E-1,-3.750286102E-1
7.920176578E0,1.018828869E0,8.767533302E-1,-8.061816692E-1
7.940026265E0,1.648847580E0,9.055146575E-1,-9.378710985E-1
7.959939442E0,1.963823676E0,1.578675389E0,-7.811486721E-1
7.979841734E0,2.091252089E0,2.806156635E0,-7.246247530E-1
7.999721578E0,2.175472260E0,3.576386690E0,-6.009911299E-1
8.019609911E0,1.981400013E0,3.694694281E0,-3.495295718E-2
8.039521473E0,1.591258407E0,3.755479097E0,5.822830200E-1
8.059368036E0,1.304510951E0,3.733042479E0,8.210283518E-1
8.079279494E0,1.047057509E0,3.228321791E0,1.086471081E0
8.099189859E0,7.651036382E-1,2.593509436E0,1.557104349E0
8.119044494E0,6.696987152E-1,2.228400946E0,1.726076961E0
8.138946890E0,6.696987152E-1,1.690591335E0,1.550712943E0
8.158833609E0,6.073825359E-1,6.161041260E-1,1.390328884E0
8.178741734E0,6.782205701E-1,-5.341477990E-1,1.333804846E0
8.198615588E0,7.469946742E-1,-1.147056222E0,1.217095256E0
8.218501369E0,6.883402467E-1,-1.155578136E0,1.037470341E0
8.238415484E0,5.812177658E-1,-6.908035874E-1,8.360081911E-1
8.258293557E0,4.687691033E-1,4.420717061E-2,6.702312827E-1
8.278201213E0,3.733641803E-1,7.061828971E-1,5.140414834E-1
8.298077880E0,2.673069239E-1,1.008376241E0,3.989297748E-1
8.317957255E0,1.489994675E-1,9.790822864E-1,3.221664131E-1
8.337847880E0,7.276873291E-2,9.135038853E-1,2.118482143E-1
8.357768192E0,8.448629081E-2,9.108408093E-1,7.003907114E-2
8.377653505E0,1.121823564E-1,8.511211872E-1,-2.057231218E-2
8.397516057E0,7.649704814E-2,7.205635905E-1,-7.649704814E-2
8.417448140E0,1.145125460E-2,6.315500140E-1,-1.553908736E-1
8.437324338E0,-3.754946589E-2,6.336805224E-1,-2.369477749E-1
8.457240328E0,-8.927984536E-2,6.310173869E-1,-2.662416697E-1
8.477120484E0,-1.318891644E-1,4.913387299E-1,-2.886781394E-1
8.496984807E0,-1.302913129E-1,2.125805616E-1,-2.940043211E-1
8.516902671E0,-8.768199384E-2,-1.471353173E-1,-2.790910602E-1
8.536791734E0,-2.050573565E-2,-5.607786179E-1,-3.046566546E-1
8.556655953E0,3.435376659E-2,-8.714937568E-1,-3.350157738E-1
8.576559807E0,4.074516147E-2,-9.663661122E-1,-3.376788795E-1
8.596438921E0,-2.157096937E-2,-8.022536039E-1,-2.731657028E-1
8.616326890E0,-1.404775977E-1,-4.291557670E-1,-1.830869317E-1
8.636227411E0,-2.465348691E-1,-7.842778414E-2,-1.474016160E-1
8.656117932E0,-2.912746668E-1,2.230331674E-2,-1.404775977E-1
8.676031109E0,-2.875463367E-1,-4.267589748E-2,-1.575213373E-1
8.695913869E0,-2.571871877E-1,-1.546585262E-1,-1.639127284E-1
8.715794390E0,-2.123808414E-1,-2.212355882E-1,-1.149120107E-1
8.735664807E0,-1.500647068E-1,-1.770284176E-1,-9.413997084E-2
8.755574703E0,-9.939955920E-2,-1.098521575E-1,-8.821461350E-2
8.775470015E0,-7.862751186E-2,-1.157109365E-1,-7.330134511E-2
8.795346682E0,-7.543181628E-2,-1.834198087E-1,-6.584471464E-2
8.815268921E0,-5.732285231E-2,-2.420742065E-1,-5.785546824E-2
8.835160067E0,-4.074516147E-2,-2.105832547E-1,-4.347482324E-2
8.855048088E0,-3.541899845E-2,-9.227581322E-2,-3.015941009E-2
8.874940692E0,-3.754946589E-2,1.324883569E-2,-2.589847706E-2
8.894830171E0,-4.074516147E-2,4.260931909E-2,-3.921389207E-2
8.914693557E0,-5.146406963E-2,2.070546709E-2,-4.187697172E-2
8.934605171E0,-6.318163127E-2,-5.392742343E-3,-1.151783206E-2
8.954482932E0,-7.010564953E-2,8.987903595E-3,3.808208182E-2
8.974389651E0,-5.998593569E-2,3.135779873E-2,8.388710022E-2
8.994306890E0,-4.340824485E-2,1.964023337E-2,1.361500919E-1
9.014186734E0,-5.679023638E-2,1.431406848E-2,2.017285079E-1
9.034042515E0,-8.395367861E-2,7.190322876E-2,2.960681915E-1
9.053950536E0,-1.020626426E-1,2.216350436E-1,4.127778113E-1
9.073851630E0,-1.474016160E-1,3.922054768E-1,5.529224873E-1
9.093728921E0,-2.326868325E-1,5.286884904E-1,6.989926100E-1
9.113630380E0,-3.136445582E-1,6.592460871E-1,8.461279273E-1
9.133507151E0,-3.664401472E-1,7.706295252E-1,9.915987849E-1
9.153411838E0,-3.765598834E-1,8.756881356E-1,1.117962003E0
9.173277515E0,-3.307548463E-1,9.785496593E-1,1.245324016E0
9.193210692E0,-1.788259894E-1,1.050452948E0,1.394057155E0
9.213092359E0,6.051855162E-2,1.082476497E0,1.581138730E0
9.232979546E0,3.675054014E-1,1.121357441E0,1.760231018E0
9.252871421E0,7.374075651E-1,1.250383854E0,1.897179961E0
9.272752255E0,1.121157765E0,1.512031674E0,2.062956810E0
9.292653401E0,1.397252798E0,1.898511529E0,2.250571012E0
9.312531421E0,1.528409600E0,2.195378780E0,2.255897284E0
9.332436473E0,1.629140735E0,1.875542521E0,2.158894539E0
9.352330901E0,1.819950581E0,8.015878797E-1,2.029868126E0
9.372238140E0,1.997445107E0,-6.945319176E-1,1.734598875E0
9.392102619E0,2.105632782E0,-2.509955406E0,1.491592526E0
9.412000848E0,2.475002289E0,-4.740020752E0,1.512364626E0
9.431858973E0,2.970135927E0,-7.357031822E0,1.622150183E0
9.451785380E0,3.584176302E0,-1.029015064E1,1.916886806E0
9.471660692E0,4.682697773E0,-1.311028862E1,2.569808006E0
9.491547567E0,6.219829082E0,-1.483982754E1,3.078856230E0
9.511426265E0,7.732526302E0,-1.371840382E1,2.494642496E0
9.531325015E0,8.131190300E0,-8.173067093E0,2.140252829E0
9.551238192E0,4.923573494E0,1.304710746E0,4.099016666E0
9.571104807E0,7.864083052E-1,9.677641869E0,4.945943356E0
9.591010692E0,-2.805424213E0,6.409240723E0,2.545840263E0
9.610881057E0,-6.006116867E0,-3.769992828E0,-3.091705799E0
9.630796942E0,-9.204079628E0,-8.678386688E0,-7.126009464E0
9.650671526E0,-1.147735310E1,-5.168044567E0,-6.468760490E0
9.670559078E0,-1.219478798E1,-9.386700392E-1,-4.638490677E0
9.690454494E0,-1.105358982E1,-2.985315621E-1,-3.348626614E0
9.710378557E0,-9.281374931E0,-2.091585159E0,-1.847114086E0
9.730289442E0,-7.965413094E0,-2.936381340E0,3.056553006E-1
9.750164234E0,-6.676614285E0,-6.109111309E-1,1.538995385E0
9.770043401E0,-5.440610886E0,1.891054869E0,1.494788289E0
9.789905171E0,-4.604336739E0,2.208693981E0,1.182408690E0
9.809810067E0,-3.794160366E0,1.576544881E0,8.279523849E-1
9.829709546E0,-2.675931931E0,1.081943870E0,7.539186478E-1
9.849608557E0,-1.601378083E0,1.383604527E0,8.764870763E-1
9.869494026E0,-8.029859662E-1,2.378199339E0,1.106710553E0
9.889353244E0,-2.960681915E-1,3.224061012E0,1.337000608E0
9.909250119E0,1.837527007E-2,3.239506721E0,1.376946807E0
9.929178453E0,3.957340717E-1,2.735318661E0,1.452644944E0
9.949050328E0,8.040512204E-1,2.425069571E0,1.762361407E0
9.968938140E0,9.180977345E-1,2.454962730E0,2.098642111E0
9.988819078E0,7.837451696E-1,2.280131340E0,2.196177721E0
1.000873241E1,7.485924959E-1,1.781202793E0,1.974475980E0
1.002859304E1,7.459294200E-1,1.377213120E0,1.800177217E0
1.004850142E1,7.134398222E-1,1.459835291E0,1.937126279E0
1.006837929E1,7.480598688E-1,1.862227082E0,2.051239252E0
1.008831429E1,7.288857102E-1,1.977871418E0,1.972878098E0
1.010818340E1,5.322170258E-1,1.841987610E0,1.738859773E0
1.012807033E1,3.728315532E-1,2.007764578E0,1.443057895E0
1.014795538E1,3.824186623E-1,2.344045162E0,1.194126248E0
1.016783408E1,4.111799598E-1,2.113289118E0,1.106710553E0
1.018772262E1,3.232316375E-1,1.393191695E0,1.120092511E0
1.020763309E1,2.038589716E-1,1.053115964E0,9.979901910E-1
1.022750606E1,1.532603949E-1,1.191729426E0,7.560491562E-1
1.024738538E1,1.479342431E-1,1.409170151E0,6.142399907E-1
1.026730476E1,1.932066381E-1,1.333538532E0,6.659703851E-1
1.028719226E1,2.896768153E-1,1.014235020E0,7.821473479E-1
1.030708918E1,3.776251078E-1,8.746228814E-1,8.684977889E-1
1.032696241E1,3.983971477E-1,1.009441495E0,9.068461657E-1
1.034685793E1,3.936035931E-1,1.263699293E0,8.695630431E-1
1.036677173E1,3.493964374E-1,1.305776000E0,7.853430510E-1
1.038665257E1,3.200359344E-1,1.000386953E0,7.149710655E-1
1.040656121E1,3.611139953E-1,6.006582975E-1,6.041202545E-1
1.042644543E1,4.336164296E-1,3.256284297E-1,4.276910722E-1
1.044631939E1,4.330838025E-1,1.689060181E-1,2.581858635E-1
1.046623533E1,3.216337860E-1,-6.457975134E-3,1.814225018E-1
1.048612981E1,1.580539495E-1,-1.993983090E-1,1.633135378E-1
1.050599564E1,8.255556226E-3,-2.697702646E-1,1.095192730E-1
1.052588304E1,-9.087768942E-2,-1.717022508E-1,2.103835158E-2
1.054579876E1,-1.575213373E-1,-1.343525201E-1,-3.388772532E-2
1.056567851E1,-2.011958808E-1,-2.857487500E-1,-3.388772532E-2
1.058556903E1,-2.364151478E-1,-4.451342523E-1,-4.667052254E-2
1.060545095E1,-2.619807422E-1,-4.861457348E-1,-8.927984536E-2
1.062532689E1,-2.875463367E-1,-4.398080707E-1,-1.239664927E-1
1.064524481E1,-3.051226735E-1,-3.561207056E-1,-1.879470497E-1
1.066514236E1,-3.013943732E-1,-3.635773361E-1,-2.108495682E-1
1.068503507E1,-2.902094126E-1,-4.467321038E-1,-1.601844132E-1
1.070493226E1,-2.651764452E-1,-4.414059222E-1,-1.042596847E-1
1.072480491E1,-2.321542203E-1,-3.460009992E-1,-6.477948278E-2
1.074469788E1,-1.846847683E-1,-2.617810071E-1,-5.945331976E-2
1.076458626E1,-1.350848675E-1,-2.388119251E-1,-6.850779802E-2
1.078447455E1,-9.087768942E-2,-2.580527067E-1,-5.039883777E-2
1.080439460E1,-4.667052254E-2,-2.468677461E-1,-4.027912393E-2
1.082425642E1,-1.038602181E-2,-1.770284176E-1,-4.507267103E-2
1.084414574E1,5.059856921E-3,-1.146457046E-1,-2.323539555E-2
1.086405335E1,-1.331541222E-3,-1.103847697E-1,3.994623665E-3
1.088393111E1,-2.103835158E-2,-1.311568171E-1,1.784265228E-2
1.090381981E1,-3.914731368E-2,-1.157109365E-1,1.464695390E-2
1.092371679E1,-5.199668556E-2,-4.800206423E-2,2.050573565E-2
1.094361684E1,-4.607132822E-2,4.047885537E-2,1.304910425E-2
1.096350189E1,-3.009283356E-2,7.616416365E-2,2.956021577E-2
1.098338356E1,-2.849498391E-2,5.219641700E-2,7.856093347E-2
1.100326845E1,-4.234301299E-2,4.953333735E-2,1.212368309E-1
1.102316330E1,-4.181039706E-2,1.321554780E-1,1.638461500E-1
1.104305793E1,-5.039883777E-2,1.918085217E-1,2.411421239E-1
1.106293866E1,-8.448629081E-2,1.944715977E-1,3.888100684E-1
1.108286184E1,-1.356174797E-1,1.731669456E-1,5.679023266E-1
1.110275361E1,-1.639127284E-1,1.673081666E-1,7.240255475E-1
1.112263715E1,-1.601844132E-1,2.446041405E-1,8.839436769E-1
1.114251970E1,-1.313565522E-1,4.279573560E-1,1.089666843E0
1.116244574E1,-9.886693954E-2,7.056503296E-1,1.311434984E0
1.118228449E1,-4.234301299E-2,9.652342796E-1,1.509701490E0
1.120222804E1,6.904041767E-2,1.135205507E0,1.697315693E0
1.122205892E1,2.283593267E-1,1.311102152E0,1.898777843E0
1.124195663E1,4.181705415E-1,1.528076768E0,2.070413589E0
1.126188538E1,6.217632294E-1,1.686330438E0,2.199373245E0
1.128175481E1,8.136382699E-1,1.562696815E0,2.303300142E0
1.130165246E1,1.001785040E0,9.502544403E-1,2.356095791E0
1.132154226E1,1.176083803E0,-9.121057577E-3,2.284658432E0
1.134142981E1,1.292260766E0,-1.026618361E0,2.099707365E0
1.136132788E1,1.452711582E0,-2.240251541E0,1.850842357E0
1.138123371E1,1.767687678E0,-3.804080248E0,1.508103609E0
1.140108194E1,2.336388826E0,-5.865172863E0,1.251715422E0
1.142099413E1,3.149228334E0,-8.441172600E0,1.307706714E0
1.144089913E1,4.285033226E0,-1.106943512E1,1.619487047E0
1.146078371E1,5.814241409E0,-1.316781139E1,2.103968382E0
1.148067850E1,7.569945335E0,-1.435854244E1,2.492512226E0
1.150054668E1,8.732913017E0,-1.392892075E1,2.231396914E0
1.152048798E1,8.088514328E0,-1.046444988E1,1.606704235E0
1.154033647E1,4.586227417E0,-3.470396042E0,3.279785872E0
1.156023434E1,-9.783499837E-1,5.506921768E0,5.655921459E0
1.158014819E1,-6.738464355E0,1.056398201E1,4.393220901E0
1.160002408E1,-9.837826729E0,8.004560471E0,-4.240959138E-2
1.161993944E1,-1.025679588E1,2.475734711E0,-4.442354679E0
1.163980319E1,-9.687029839E0,-1.548982024E0,-6.194263458E0
1.165968564E1,-9.595885277E0,-2.266882420E0,-6.419227123E0
1.167957324E1,-9.253147125E0,-5.746266246E-1,-6.011975288E0
1.169948116E1,-7.973402500E0,2.904091477E-1,-4.635827541E0
1.171935439E1,-6.291266441E0,-1.002650559E-1,-1.997977734E0
1.173924179E1,-5.222038746E0,8.516538143E-1,-7.043853402E-1
1.175914199E1,-4.321317673E0,1.550446630E0,1.057909578E-1
1.177904830E1,-3.748887777E0,1.674080253E0,8.929981589E-1
1.179891887E1,-3.417866707E0,2.094115019E0,1.333804846E0
1.181880137E1,-2.602364302E0,2.701164722E0,1.392991900E0
1.183870715E1,-1.438863516E0,3.286976337E0,1.379609942E0
1.185861361E1,-4.693017304E-1,3.814599514E0,1.678674102E0
1.187847876E1,-2.203700840E-1,4.167990685E0,2.021878958E0
1.189838444E1,-2.864811122E-1,3.808740616E0,2.191916704E0
1.191829304E1,7.190322969E-3,2.531659365E0,2.291049957E0
1.193819658E1,2.934051156E-1,1.625079513E0,2.369943857E0
1.195803705E1,1.329544038E-1,1.913424850E0,2.212688684E0
1.197794918E1,7.489919662E-2,2.220411777E0,1.772481203E0
1.199785569E1,2.358825356E-1,1.622949123E0,1.576877713E0
1.201771720E1,3.936035931E-1,1.272753716E0,1.670152187E0
1.203762705E1,5.806851387E-1,1.629873157E0,1.484668493E0
1.205747939E1,6.712965369E-1,1.560566425E0,1.204845071E0
1.207739429E1,6.260241270E-1,9.764192104E-1,1.287933350E0
1.209727397E1,8.408017159E-1,8.756881356E-1,1.553376079E0
1.211717580E1,1.098255277E0,1.354310632E0,1.473417044E0
1.213704814E1,1.157974839E0,1.755104542E0,1.246389270E0
1.215695767E1,1.035872579E0,1.453976512E0,1.243193507E0
1.217686778E1,7.491251230E-1,1.032876611E0,1.257574201E0
1.219672564E1,5.370106101E-1,1.029680848E0,1.052916288E0
1.221662564E1,4.304207265E-1,1.101118088E0,8.322132826E-1
1.223649653E1,3.488638103E-1,1.035539627E0,7.181667686E-1
1.225639684E1,2.518610358E-1,9.358738065E-1,6.494592428E-1
1.227631970E1,2.033263594E-1,9.417325854E-1,5.300199986E-1
1.229619351E1,2.193048447E-1,9.923977256E-1,3.338839710E-1
1.231608507E1,2.171743810E-1,9.353411794E-1,1.808898896E-1
1.233595668E1,1.489994675E-1,7.173678875E-1,8.761541545E-2
1.235587324E1,5.093145370E-2,4.199681282E-1,7.989247679E-4
1.237574819E1,-4.127778113E-2,1.811561882E-1,-7.223611325E-2
1.239566252E1,-1.063235700E-1,5.166380107E-2,-1.165098622E-1
1.241552340E1,-1.415428370E-1,-5.013252795E-2,-1.719019860E-1
1.243545361E1,-1.681736708E-1,-2.132463306E-1,-1.980667710E-1
1.245534647E1,-1.894783229E-1,-3.651751876E-1,-2.087190896E-1
1.247523574E1,-1.766955256E-1,-4.414059222E-1,-2.476001084E-1
1.249512205E1,-1.361500919E-1,-4.770912528E-1,-2.689047754E-1
1.251498876E1,-1.137802005E-1,-4.845478833E-1,-2.460022569E-1
1.253490699E1,-1.201715991E-1,-4.744281471E-1,-1.991319954E-1
1.255477449E1,-1.484668553E-1,-4.728302956E-1,-1.521951705E-1
1.257465694E1,-1.836195439E-1,-4.728302956E-1,-1.394123733E-1
1.259457309E1,-2.065220475E-1,-4.595148861E-1,-1.500647068E-1
1.261444408E1,-2.118482143E-1,-4.376776218E-1,-1.564560980E-1
1.263435913E1,-2.001306564E-1,-4.382102489E-1,-1.623148769E-1
1.265424423E1,-1.750976741E-1,-4.318188429E-1,-1.660431921E-1
1.267413444E1,-1.580539495E-1,-3.619794846E-1,-1.655105799E-1
1.269400377E1,-1.410102248E-1,-2.474003732E-1,-1.442059278E-1
1.271393319E1,-1.201715991E-1,-1.876807362E-1,-1.021292135E-1
1.273380408E1,-1.121823564E-1,-2.095180154E-1,-7.223611325E-2
1.275371111E1,-1.238999143E-1,-2.436720580E-1,-8.129059523E-2
1.277359002E1,-1.426080763E-1,-2.495308369E-1,-1.106510833E-1
1.279349288E1,-1.479342431E-1,-2.356162220E-1,-1.218360290E-1
1.281335981E1,-1.410102248E-1,-2.084527910E-1,-1.101184636E-1
1.283325366E1,-1.399449855E-1,-1.380808353E-1,-9.467258304E-2
1.285316278E1,-1.313565522E-1,-4.587159678E-2,-9.247554094E-2
1.287306215E1,-1.196389869E-1,-2.243646979E-2,-6.797518581E-2
1.289295496E1,-1.254977584E-1,-6.884068251E-2,-1.631138101E-2
1.291284819E1,-1.345522404E-1,-8.961272985E-2,3.701684624E-2
1.293269845E1,-1.500647068E-1,-1.657768898E-2,6.524552405E-2
1.295259080E1,-1.633801162E-1,1.033276021E-1,7.376738638E-2
1.297249804E1,-1.676410437E-1,1.950042248E-1,1.201715991E-1
1.299238804E1,-1.825543046E-1,2.403431982E-1,2.358159572E-1
1.301231918E1,-2.460022569E-1,2.882786989E-1,4.063864052E-1
1.303221012E1,-3.717663288E-1,4.471315742E-1,6.190335155E-1
1.305207699E1,-5.391410589E-1,6.496589780E-1,8.583781123E-1
1.307194918E1,-6.776879430E-1,7.690316439E-1,1.135005832E0
1.309185064E1,-7.933988571E-1,8.697627783E-1,1.456905842E0
1.311172897E1,-8.557149768E-1,9.491891861E-1,1.817220926E0
1.313163371E1,-7.810820937E-1,8.367405534E-1,2.219612837E0
1.315151762E1,-5.513912439E-1,4.966649115E-1,2.663615227E0
1.317142397E1,-1.708367467E-1,1.058575325E-2,3.092171669E0
1.319130965E1,3.291569948E-1,-5.474631786E-1,3.423126221E0
1.321125653E1,9.026518464E-1,-1.161436915E0,3.629448652E0
1.323109699E1,1.472418308E0,-1.807434082E0,3.733907938E0
1.325096017E1,2.011293173E0,-2.522205591E0,3.705146790E0
1.327086439E1,2.544775009E0,-3.489636898E0,3.647024870E0
1.329073793E1,3.390170574E0,-5.478227139E0,3.858606815E0
1.331064918E1,4.926769257E0,-7.906558990E0,3.507346392E0
1.333053236E1,5.676160812E0,-9.445887566E0,2.408358812E0
1.335043986E1,5.845133305E0,-1.103581429E1,2.258560419E0
1.337034106E1,6.424487114E0,-1.208100700E1,2.447239637E0
1.339023559E1,6.862098217E0,-1.178627110E1,2.094913960E0
1.341010949E1,6.231013775E0,-1.010466766E1,1.747914195E0
1.342998142E1,4.418320179E0,-6.489333153E0,2.524535656E0
1.344989340E1,1.374350309E0,-1.130478531E-1,4.513658524E0
1.346975272E1,-3.786170959E0,7.287126064E0,5.673497677E0
1.348967319E1,-9.337367058E0,1.000060749E1,2.978657961E0
1.350956048E1,-1.168467426E1,6.657639980E0,-3.166871309E0
1.352944272E1,-1.179073143E1,1.364962935E0,-8.747361183E0
1.354933199E1,-1.181636333E1,-2.061159372E0,-1.040180111E1
1.356922627E1,-1.142136192E1,-1.897512913E0,-9.559134483E0
1.358915986E1,-9.845815659E0,-5.293542147E-1,-7.827931404E0
1.360900564E1,-7.922271252E0,-1.028216124E0,-5.539211750E0
1.362889002E1,-7.016157150E0,-2.320743322E0,-2.814545393E0
1.364878861E1,-6.327484131E0,-1.798912287E0,-5.455324650E-1
1.366869288E1,-4.843081951E0,3.133116663E-1,6.403381824E-1
1.368855970E1,-3.571926117E0,1.989122987E0,1.242660880E0
1.370847673E1,-2.902959824E0,2.674001217E0,1.598182440E0
1.372839491E1,-2.370543003E0,2.831256151E0,1.824144959E0
1.374829460E1,-1.736795902E0,2.664946795E0,1.966486692E0
1.376817319E1,-1.097722650E0,2.494908810E0,1.970747709E0
1.378801533E1,-5.189016461E-1,2.738514423E0,2.012824297E0
1.380791564E1,-8.022536337E-2,3.189973354E0,2.086924553E0
1.382782715E1,2.369477749E-1,3.125460386E0,2.127403498E0
1.384771632E1,4.250945449E-1,2.546639204E0,2.214286566E0
1.386760694E1,5.465977192E-1,2.212954998E0,2.291582584E0
1.388747626E1,7.870074511E-1,2.218813896E0,2.318812609E0
1.390737939E1,1.019361377E0,1.952305794E0,2.337986708E0
1.392726486E1,9.900675416E-1,1.458237410E0,2.383259058E0
1.394717382E1,9.138367772E-1,1.410768032E0,2.319877863E0
1.396704606E1,1.026285410E0,1.558435917E0,2.109827042E0
1.398694241E1,1.224551916E0,1.310569525E0,1.991519690E0
1.400684976E1,1.166496754E0,7.829462886E-1,2.043250084E0
1.402671158E1,1.076950550E0,6.528546810E-1,2.069348335E0
1.404663382E1,1.065232992E0,8.724924326E-1,1.846514821E0
1.406650543E1,1.019894004E0,9.257540703E-1,1.601910710E0
1.408638215E1,8.290841579E-1,7.376073003E-1,1.477145314E0
1.410630486E1,6.372090578E-1,6.059844494E-1,1.396720171E0
1.412619293E1,5.300865769E-1,6.539199352E-1,1.289531112E0
1.414608595E1,4.122451842E-1,7.413356304E-1,1.149386406E0
1.416594158E1,2.763614058E-1,7.802832127E-1,9.963923693E-1
1.418585684E1,1.671084315E-1,7.541183829E-1,8.450626731E-1
1.420572465E1,2.091851383E-1,8.239577413E-1,7.133732438E-1
1.422561298E1,3.189707100E-1,9.001885056E-1,5.881417990E-1
1.424552017E1,3.808208108E-1,8.351426721E-1,4.356803000E-1
1.426539939E1,3.621792197E-1,6.741593480E-1,3.157750070E-1
1.428530976E1,2.891441882E-1,5.505257249E-1,2.166417688E-1
1.430520080E1,2.006632686E-1,4.572512805E-1,1.356174797E-1
1.432508002E1,1.276282370E-1,3.320198059E-1,9.513862431E-2
1.434496444E1,7.276873291E-2,1.795583367E-1,4.553871229E-2
1.436488142E1,1.304910425E-2,1.431406848E-2,-2.463351469E-3
1.438476465E1,-6.531210244E-2,-1.503975838E-1,5.592473317E-3
1.440467262E1,-1.382805556E-1,-2.511286736E-1,9.320789017E-3
1.442454746E1,-1.953371018E-1,-2.719007432E-1,-8.322132751E-3
1.444445048E1,-2.486653328E-1,-2.575200796E-1,-2.643109486E-2
1.446437080E1,-2.928725183E-1,-2.782921195E-1,-3.655080870E-2
1.448425085E1,-3.179054856E-1,-3.646425903E-1,-2.962679416E-2
1.450412496E1,-3.168402612E-1,-4.515256584E-1,-1.737661287E-2
1.452401616E1,-3.221664131E-1,-4.547213614E-1,-8.655018173E-4
1.454388934E1,-3.446028829E-1,-4.253608584E-1,3.222329915E-2
1.456378236E1,-3.627118468E-1,-4.552539587E-1,9.993217140E-2
1.458369892E1,-3.744294047E-1,-5.266911387E-1,1.707701683E-1
1.460357892E1,-3.797555864E-1,-5.623764396E-1,2.219679356E-1
1.462346798E1,-3.840165138E-1,-5.245606899E-1,2.533923090E-1
1.464335069E1,-3.973319232E-1,-4.653736651E-1,2.870137095E-1
1.466324627E1,-3.994623721E-1,-4.424711764E-1,3.173728585E-1
1.468313215E1,-3.877448142E-1,-4.232304096E-1,3.418732285E-1
1.470301616E1,-3.488638103E-1,-3.182383776E-1,3.610474169E-1
1.472292934E1,-2.976660430E-1,-1.375482082E-1,3.519929349E-1
1.474281257E1,-2.683721483E-1,-4.327509087E-3,3.551886380E-1
1.476271069E1,-2.497305721E-1,3.781577200E-2,3.967992961E-1
1.478259429E1,-2.283593267E-1,6.817491353E-2,4.244953692E-1
1.480248158E1,-1.868152469E-1,9.853405505E-2,4.234301150E-1
1.482237642E1,-1.580539495E-1,7.616416365E-2,4.505935609E-1
1.484225798E1,-1.474016160E-1,-2.197043039E-3,5.087153316E-1
1.486214731E1,-1.212368309E-1,-4.587159678E-2,5.599130988E-1
1.488206226E1,-6.957302988E-2,1.644453406E-2,5.812177658E-1
1.490195033E1,-8.788172156E-3,1.422751844E-1,5.806851387E-1
1.492183548E1,6.264901906E-2,2.893439233E-1,5.593804717E-1
1.494173736E1,1.324217767E-1,4.141093493E-1,5.459985137E-1
1.496161486E1,2.059894353E-1,4.940018058E-1,5.502594113E-1
1.498151632E1,3.024595976E-1,5.782217979E-1,5.369440317E-1
1.500137543E1,3.967992961E-1,6.283543110E-1,5.273569226E-1
1.502128892E1,4.756931365E-1,6.075822711E-1,5.406723619E-1
1.504121543E1,5.449998379E-1,5.787544250E-1,5.609783530E-1
1.506107371E1,6.308176517E-1,5.995930433E-1,5.604457259E-1
1.508094470E1,7.331466079E-1,6.512568593E-1,5.433354378E-1
1.510085272E1,8.397365212E-1,6.832138300E-1,5.486615896E-1
1.512077835E1,9.441959262E-1,6.533873081E-1,5.870765448E-1
1.514064600E1,1.036937714E0,4.705666900E-1,6.478614211E-1
1.516052022E1,1.177149057E0,-6.777545065E-2,7.437989712E-1
1.518043632E1,1.368491530E0,-1.111370921E0,8.450626731E-1
1.520032611E1,1.506505847E0,-2.254632235E0,8.376060128E-1
1.522026798E1,1.662695646E0,-3.098363400E0,7.752233148E-1
1.524009116E1,1.918018579E0,-3.798754215E0,6.851445436E-1
1.525999246E1,2.204766035E0,-4.608930588E0,5.955983996E-1
1.527986022E1,2.524535656E0,-5.330626011E0,5.918700695E-1
1.529975970E1,2.985581875E0,-5.586414814E0,6.259575486E-1
1.531967028E1,3.598024368E0,-5.395605087E0,6.989926100E-1
1.533953069E1,4.329306602E0,-5.112586021E0,7.922670841E-1
1.535945319E1,5.199668884E0,-5.148337841E0,8.993895650E-1
1.537931210E1,6.312571049E0,-5.594404221E0,1.205377698E0
1.539924356E1,7.747439861E0,-6.244129658E0,1.903571367E0
1.541910757E1,8.999954224E0,-6.742525578E0,2.737182856E0
1.543898028E1,9.219058990E0,-6.863496304E0,3.127324343E0
1.545889903E1,8.053894043E0,-5.309787273E0,3.447693348E0
1.547877460E1,5.485351086E0,2.198041677E0,3.858074188E0
1.549867272E1,1.387133121E0,1.225843525E1,4.019057751E0
1.551855272E1,-2.653029442E0,1.377213192E1,2.223940134E0
1.553846798E1,-5.610649109E0,5.677425861E0,-2.711151123E0
1.555836632E1,-8.924256325E0,-4.026314735E0,-7.229403496E0
1.557825434E1,-1.217508125E1,-8.383050919E0,-7.575271606E0
1.559816080E1,-1.309877110E1,-5.954186440E0,-5.257257938E0
1.561803840E1,-1.210151291E1,-1.810629845E0,-2.956820488E0
1.563789574E1,-1.103494835E1,-4.627105892E-1,-7.902031541E-1
1.565778699E1,-1.032077599E1,-2.601831555E-1,1.637063384E0
1.567770101E1,-9.106011391E0,1.987525105E0,1.775144219E0
1.569758486E1,-7.613619804E0,4.404672146E0,5.065848827E-1
1.571748366E1,-6.046595573E0,5.165781021E0,-4.181705415E-1
1.573734085E1,-4.424711704E0,4.605069160E0,-9.298818707E-1
1.575727309E1,-3.128988743E0,3.757609606E0,-9.980567694E-1
1.577721913E1,-2.234592676E0,3.331183434E0,-9.501212835E-1
1.579703569E1,-1.515560269E0,2.883985281E0,-8.366073966E-1
1.581694767E1,-8.019207120E-1,2.032264948E0,-4.426709116E-1
1.583680090E1,-2.283593267E-1,1.455574393E0,5.406057462E-2
1.585672476E1,2.768940032E-1,1.500846744E0,2.822201848E-1
1.587662809E1,9.751542807E-1,1.435334921E0,5.668371320E-1
1.589648397E1,1.476146698E0,1.084074378E0,1.162169218E0
1.591636699E1,1.297586918E0,1.227947354E0,1.676010966E0
1.593627361E1,8.109751940E-1,1.832400560E0,1.741522789E0
1.595616361E1,7.928662300E-1,2.041851997E0,1.639193892E0
1.597605022E1,9.612396359E-1,1.813758969E0,1.794318438E0
1.599594069E1,7.896705270E-1,1.962425590E0,1.928071737E0
1.601584726E1,7.880727053E-1,2.125539303E0,1.694119930E0
1.603574569E1,1.181409955E0,1.389463305E0,1.426014185E0
1.605561939E1,1.416427016E0,3.916728795E-1,1.375881553E0
1.607549387E1,1.373285055E0,-1.338198967E-2,1.405242085E0
1.609537637E1,1.273619175E0,1.401447207E-1,1.332739711E0
1.611528043E1,1.217627883E0,5.872762799E-1,1.155777812E0
1.613518783E1,1.035872579E0,9.172322154E-1,1.015566587E0
1.615505095E1,7.198312283E-1,1.144792557E0,9.351414442E-1
1.617496444E1,4.368121028E-1,1.409702778E0,7.730928659E-1
1.619483366E1,2.731657028E-1,1.535533428E0,5.844134688E-1
1.621472496E1,1.249651462E-1,1.314830422E0,4.783562124E-1
1.623461600E1,-6.424686313E-2,8.420667052E-1,3.717663288E-1
1.625452215E1,-2.187722325E-1,4.028578103E-1,2.363485843E-1
1.627441236E1,-2.987312973E-1,1.678407788E-1,1.127149686E-1
1.629430757E1,-3.355484009E-1,1.022623703E-1,6.577813625E-2
1.631424476E1,-3.962666988E-1,8.415340632E-2,8.708280325E-2
1.633407376E1,-4.650408030E-1,5.485950038E-2,8.495233208E-2
1.635399621E1,-5.135754943E-1,-2.616478689E-2,7.270215452E-2
1.637391699E1,-5.151733160E-1,-1.503975838E-1,6.631075591E-2
1.639378986E1,-4.527906179E-1,-2.687050402E-1,5.565842614E-2
1.641365054E1,-3.728315532E-1,-3.422726989E-1,4.127778113E-2
1.643353491E1,-3.344831765E-1,-3.694361150E-1,3.595161438E-2
1.645346007E1,-3.077857792E-1,-3.587838113E-1,2.583190054E-2
1.647334423E1,-2.561219633E-1,-3.582511842E-1,9.853405878E-3
1.649324976E1,-2.272941023E-1,-4.435364008E-1,1.864157850E-3
1.651316366E1,-2.272941023E-1,-5.607786179E-1,1.091863867E-2
1.653300330E1,-2.433391660E-1,-5.708982944E-1,1.624480449E-2
1.655290856E1,-2.497305721E-1,-4.600475132E-1,2.663082560E-4
1.657279814E1,-2.337520719E-1,-3.267602324E-1,-4.593817517E-3
1.659266824E1,-2.246310115E-1,-2.623136342E-1,6.125089712E-3
1.661256736E1,-2.283593267E-1,-2.436720580E-1,2.529928461E-2
1.663246069E1,-2.166417688E-1,-1.759631783E-1,4.873441160E-2
1.665237783E1,-2.075872868E-1,-3.788235039E-2,4.021254554E-2
1.667227726E1,-1.995980442E-1,1.348185539E-1,-1.151783206E-2
1.669214814E1,-1.995980442E-1,2.307561040E-1,-1.364829857E-2
1.671203043E1,-1.820216924E-1,1.278279573E-1,3.967992961E-2
1.673192908E1,-1.964023411E-1,-9.919982404E-2,6.418029219E-2
1.675179335E1,-2.214353085E-1,-2.601831555E-1,6.151720881E-2
1.677170601E1,-2.150439173E-1,-2.452699095E-1,8.228924870E-2
1.679158324E1,-1.942718774E-1,-9.440627694E-2,7.376738638E-2
1.681148429E1,-1.884130985E-1,-5.991935614E-4,4.713656008E-2
1.683135752E1,-2.011958808E-1,-4.959991202E-2,6.045197323E-2
1.685126262E1,-2.235657871E-1,-1.087869257E-1,9.134373069E-2
1.687121444E1,-2.272941023E-1,-1.098521575E-1,9.780170768E-2
1.689103048E1,-2.235657871E-1,-9.067796171E-2,1.031278744E-1
1.691094486E1,-2.364151478E-1,-4.320851341E-2,1.324217767E-1
1.693084278E1,-2.438717782E-1,4.420717061E-2,1.729006320E-1
1.695072861E1,-2.353499234E-1,1.278279573E-1,2.177069932E-1
1.697060168E1,-2.038589716E-1,1.246322617E-1,2.864811122E-1
1.699051965E1,-1.644453406E-1,4.367455468E-2,3.707011044E-1
1.701039319E1,-1.489994675E-1,-3.149095178E-2,4.655734003E-1
1.703031757E1,-1.521951705E-1,-4.533898085E-2,5.977289081E-1
1.705020960E1,-1.329544038E-1,-1.497983932E-2,7.576469779E-1
1.707005324E1,-1.004647911E-1,3.561872989E-2,9.244225621E-1
1.708996731E1,-3.488638252E-2,9.746882319E-2,1.107775807E0
1.710987194E1,6.584471464E-2,2.430062890E-1,1.291128993E0
1.712974736E1,2.348173112E-1,4.737623930E-1,1.467558265E0
1.714963231E1,4.730300307E-1,6.192998290E-1,1.655704975E0
1.716953642E1,8.008555174E-1,5.840805769E-1,1.880668879E0
1.718943465E1,1.189931870E0,4.513925016E-1,2.106098890E0
1.720932590E1,1.518756032E0,3.911402524E-1,2.253766775E0
1.722920231E1,1.792187929E0,4.049882889E-1,2.310756683E0
1.724909309E1,2.150905132E0,1.619819999E-1,2.366215467E0
1.726897418E1,2.648768425E0,-3.758275211E-1,2.503763676E0
1.728889819E1,3.247828960E0,-1.093794584E0,2.689779997E0
1.730873804E1,3.903945923E0,-2.036126375E0,2.841642141E0
1.732865330E1,4.577639103E0,-3.324392557E0,2.896568298E0
1.734854564E1,5.218310356E0,-5.032626629E0,2.901361942E0
1.736843783E1,5.848861694E0,-7.028207779E0,2.942905903E0
1.738834632E1,6.563632965E0,-8.916599274E0,3.084715128E0
1.740826887E1,7.629065990E0,-1.023955250E1,3.393832445E0
1.742811522E1,8.817133904E0,-1.090578938E1,3.577718258E0
1.744800548E1,9.479108810E0,-1.053748512E1,2.928525209E0
1.746790022E1,8.815535545E0,-7.000511646E0,2.150905132E0
1.748776866E1,5.072839260E0,7.808157802E-1,3.545228720E0
1.750767949E1,-1.525147438E0,8.308884621E0,5.388880730E0
1.752756783E1,-7.918010235E0,8.300362587E0,3.273394585E0
1.754747215E1,-1.161596680E1,2.734786034E0,-1.956433654E0
1.756734798E1,-1.338871384E1,-1.800510168E0,-5.694336414E0
1.758726038E1,-1.401706886E1,-3.091439486E0,-5.813708782E0
1.760714423E1,-1.349423885E1,-1.571351886E0,-4.911922455E0
1.762700871E1,-1.229498577E1,-3.193036020E-1,-3.861869097E0
1.764692226E1,-1.145285320E1,-5.101134777E-1,-2.274605274E0
1.766678970E1,-1.055685902E1,-4.320851341E-2,-8.978582621E-1
1.768669861E1,-8.568800926E0,1.280743003E0,6.418029219E-2
1.770659444E1,-6.203318119E0,2.513017893E0,2.987312973E-1
1.772646116E1,-4.061733723E0,2.791775942E0,2.971334457E-1
1.774636153E1,-2.508024693E0,2.474669456E0,4.719648063E-1
1.776626783E1,-1.653108478E0,2.386721134E0,6.094464660E-1
1.778616080E1,-1.129679680E0,2.643641949E0,8.204957247E-1
1.780603798E1,-6.302850842E-1,3.094568491E0,1.125951290E0
1.782593298E1,-2.465348691E-1,3.571593285E0,1.429742455E0
1.784581017E1,-2.210358530E-2,3.756011724E0,1.601378083E0
1.786571048E1,3.691032529E-1,3.368533134E0,1.532603979E0
1.788561153E1,8.392038941E-1,2.475734711E0,1.548049927E0
1.790547272E1,9.410002232E-1,1.747647882E0,1.694652557E0
1.792539882E1,5.849460959E-1,1.589327693E0,1.680271983E0
1.794529111E1,4.256271720E-1,1.564294696E0,1.542191148E0
1.796519189E1,4.095821083E-1,1.217827678E0,1.558702230E0
1.798503835E1,4.053211510E-1,1.107509494E0,1.659433365E0
1.800492699E1,5.418041348E-1,1.351114988E0,1.657835484E0
1.802485892E1,7.870074511E-1,1.304178119E0,1.573149443E0
1.804473319E1,8.770196438E-1,6.438001990E-1,1.486799002E0
1.806459111E1,8.471931219E-1,-1.615825295E-1,1.412166119E0
1.808449814E1,9.111737013E-1,-6.226286888E-1,1.234139085E0
1.810440465E1,8.567802310E-1,-8.987237811E-1,1.013968706E0
1.812431059E1,6.377416849E-1,-1.053781748E0,8.914003372E-1
1.814420486E1,3.446028829E-1,-9.423983693E-1,8.679651618E-1
1.816405064E1,1.223020703E-1,-6.937330216E-2,9.153680801E-1
1.818396496E1,2.796236612E-2,1.028082967E0,9.655005932E-1
1.820383335E1,3.328853101E-2,1.334603786E0,8.983243108E-1
1.822372536E1,7.756228000E-2,1.102715969E0,7.362757325E-1
1.824363666E1,1.857500076E-1,8.255556226E-1,4.629103243E-1
1.826350952E1,2.497305721E-1,6.512568593E-1,2.246310115E-1
1.828338906E1,2.107829899E-1,7.237592340E-1,1.302913129E-1
1.830329020E1,1.489994675E-1,9.268193245E-1,9.407339245E-2
1.832319932E1,9.460600466E-2,9.631038308E-1,7.057169080E-2
1.834313682E1,4.340824485E-2,6.912696362E-1,5.725627393E-2
1.836296244E1,3.462007269E-3,2.824199200E-1,4.553871229E-2
1.838289760E1,-1.944050193E-2,-1.497983932E-2,7.190322969E-3
1.840278432E1,-2.476666868E-2,-1.354177445E-1,-1.950708032E-2
1.842264077E1,-7.722939365E-3,-1.290263534E-1,-5.306192115E-2
1.844254015E1,8.255556226E-3,-1.173087880E-1,-9.999874979E-2
1.846244234E1,5.592473317E-3,-1.839524209E-1,-1.431406885E-1
1.848237166E1,-2.689713426E-2,-3.001294136E-1,-1.436733007E-1
1.850226796E1,-6.584471464E-2,-4.221651554E-1,-9.946613014E-2
1.852212473E1,-7.969274372E-2,-5.042546988E-1,-6.477948278E-2
1.854201333E1,-9.087768942E-2,-5.229628086E-1,-6.105116755E-2
1.856191244E1,-9.513862431E-2,-4.930697381E-1,-5.625762045E-2
1.858181067E1,-9.247554094E-2,-4.195020795E-1,-5.679023638E-2
1.860166624E1,-1.004647911E-1,-3.353486657E-1,-5.146406963E-2
1.862157791E1,-1.302913129E-1,-2.830856740E-1,-2.856156044E-2
1.864146291E1,-1.516625583E-1,-2.766942680E-1,-6.724283565E-3
1.866136411E1,-1.548582464E-1,-2.894770801E-1,-2.463351469E-3
1.868125114E1,-1.431406885E-1,-2.910749316E-1,1.464695390E-2
1.870114135E1,-1.281608492E-1,-2.585853040E-1,6.737598777E-2
1.872102468E1,-1.175085157E-1,-1.903438270E-1,1.228346825E-1
1.874095494E1,-9.939955920E-2,-6.564498693E-2,1.643787771E-1
1.876080478E1,-9.354077280E-2,1.353511661E-1,1.787594110E-1
1.878070520E1,-1.196389869E-1,3.442699909E-1,1.436067224E-1
1.880059265E1,-1.484668553E-1,4.093157947E-1,1.137802005E-1
1.882049432E1,-1.782933772E-1,2.973331809E-1,1.254977584E-1
1.884037583E1,-2.219679356E-1,1.043928340E-1,1.606504619E-1
1.886028635E1,-2.705025971E-1,-4.587159678E-2,1.964023411E-1
1.888018030E1,-2.843506336E-1,-8.641702682E-2,2.256962508E-1
1.890006421E1,-2.518610358E-1,-6.777545065E-2,2.576532364E-1
1.891998416E1,-2.288919389E-1,-1.178414002E-2,3.019269705E-1
1.893985192E1,-2.193048447E-1,7.669677585E-2,3.525255620E-1
1.895969702E1,-2.203700840E-1,1.577210575E-1,4.133104086E-1
1.897959458E1,-2.240983993E-1,2.595174015E-1,5.012587309E-1
1.899950791E1,-2.011958808E-1,3.980642557E-1,5.710980296E-1
1.901939275E1,-1.431406885E-1,5.361450911E-1,6.099790335E-1
1.903927343E1,-5.945331976E-2,6.555177569E-1,6.435338855E-1
1.905916645E1,4.074516147E-2,7.754230499E-1,7.085797191E-1
1.907905713E1,1.676410437E-1,8.927318454E-1,8.130391240E-1
1.909894286E1,3.077857792E-1,9.694951773E-1,9.319457412E-1
1.911887234E1,4.613124728E-1,9.764192104E-1,1.058775067E0
1.913872166E1,6.547853947E-1,8.788838387E-1,1.233606458E0
1.915864307E1,9.069127440E-1,7.487922311E-1,1.430807710E0
1.917851937E1,1.196323276E0,6.555177569E-1,1.590193152E0
1.919841796E1,1.499049187E0,5.015250444E-1,1.735131383E0
1.921832801E1,1.753839612E0,1.545253694E-1,1.870549202E0
1.923821775E1,1.906301022E0,-3.715665936E-1,1.950508237E0
1.925807728E1,1.986726165E0,-8.971259594E-1,2.019215822E0
1.927797588E1,2.302834034E0,-1.537796974E0,2.210025549E0
1.929788775E1,2.819804907E0,-2.319678068E0,2.511752844E0
1.931777150E1,3.361342907E0,-3.062145472E0,2.755824327E0
1.933764176E1,3.962600231E0,-3.822189331E0,2.856555462E0
1.935754458E1,4.631500244E0,-4.817316532E0,2.901894569E0
1.937742817E1,5.429958820E0,-6.095995903E0,2.969070673E0
1.939730864E1,6.280081272E0,-7.584126472E0,3.126259089E0
1.941720390E1,7.220282555E0,-9.123388290E0,3.480715513E0
1.943709228E1,8.089579582E0,-1.066431427E1,3.641698837E0
1.945699609E1,8.135451317E0,-1.223080540E1,2.888579130E0
1.947690067E1,6.984133720E0,-1.263426304E1,1.872679710E0
1.949677853E1,5.243942261E0,-8.063814163E0,2.541046858E0
1.951665031E1,1.225617170E0,3.077458143E0,5.459252834E0
1.953656723E1,-4.740753174E0,1.219552040E1,7.176541328E0
1.955643692E1,-9.363465309E0,1.147435760E1,4.774307728E0
1.957635973E1,-1.077856064E1,6.321825027E0,-7.198312283E-1
1.959624244E1,-1.060060024E1,2.247042418E0,-5.428360939E0
1.961613525E1,-1.070825481E1,-8.272866011E-1,-7.249110222E0
1.963600791E1,-1.061604595E1,-2.510488033E0,-6.743257999E0
1.965592952E1,-9.514861107E0,-2.012691259E0,-5.570169926E0
1.967580786E1,-7.729863644E0,-1.166296959E0,-3.801683426E0
1.969569140E1,-6.614231586E0,-1.151849747E0,-6.047194600E-1
1.971556885E1,-6.032215118E0,5.805519968E-2,2.119414330E0
1.973548244E1,-5.231159687E0,2.378199339E0,3.003690720E0
1.975535421E1,-4.011068344E0,4.253808498E0,2.916275024E0
1.977525176E1,-3.113010406E0,5.308588982E0,2.692975760E0
1.979515380E1,-2.596505404E0,5.786745071E0,2.431261301E0
1.981502145E1,-1.996379852E0,5.552194118E0,1.952106118E0
1.983491838E1,-1.238932610E0,4.692484856E0,1.527277827E0
1.985482661E1,-7.709624171E-1,4.039563179E0,1.413231373E0
1.987470713E1,-5.428693891E-1,3.588104248E0,1.101917028E0
1.989459364E1,-1.809564531E-1,2.139919996E0,6.590463519E-1
1.991447676E1,8.821461350E-2,4.007273614E-1,4.852802157E-1
1.993438359E1,3.275591508E-2,-1.977338828E-2,4.276910722E-1
1.995429156E1,2.182396203E-1,4.748276174E-1,3.471993804E-1
1.997418656E1,6.675682068E-1,3.575854003E-1,4.906063974E-1
1.999404822E1,1.313032866E0,-2.426068187E-1,1.166430116E0
2.001393656E1,1.424416304E0,5.308189392E-1,1.570419788E0
2.003383749E1,1.286401987E0,1.870216250E0,1.338065863E0
2.005370937E1,1.377546072E0,2.197509050E0,1.140331984E0
2.007360187E1,1.439396143E0,1.839857221E0,1.156843066E0
2.009350838E1,1.108374953E0,1.333006024E0,1.099253893E0
2.011338874E1,7.033200860E-1,1.002517462E0,8.988569379E-1
2.013329567E1,5.604457259E-1,1.241329312E0,7.000578046E-1
2.015320057E1,6.547853947E-1,1.860096574E0,6.270228028E-1
2.017308025E1,6.574485302E-1,1.975208282E0,7.059165835E-1
2.019294202E1,5.902722478E-1,1.481139898E0,8.402691483E-1
2.021282791E1,5.242277980E-1,1.024887323E0,8.311480880E-1
2.023272213E1,4.527906179E-1,8.911340237E-1,6.750248671E-1
2.025264963E1,3.941362202E-1,9.182974696E-1,5.268242955E-1
2.027253661E1,3.398093283E-1,8.719598055E-1,4.569849670E-1
2.029239770E1,2.667742968E-1,7.120416760E-1,4.042559266E-1
2.031230072E1,1.942718774E-1,5.079164505E-1,3.179054856E-1
2.033223593E1,1.254977584E-1,3.724986613E-1,1.969349533E-1
2.035206447E1,5.732285231E-2,3.250958025E-1,9.354077280E-2
2.037199114E1,2.663082560E-4,2.680392563E-1,5.246272683E-2
2.039186416E1,-4.773575440E-2,1.518622786E-1,2.476666868E-2
2.041176775E1,-9.780170768E-2,8.987903595E-3,-1.790923066E-2
2.043166202E1,-1.591191888E-1,-1.519954354E-1,-4.134435579E-2
2.045154442E1,-1.953371018E-1,-2.905423045E-1,-3.921389207E-2
2.047140765E1,-2.107829899E-1,-4.029909670E-1,-3.708342463E-2
2.049131088E1,-2.262288630E-1,-5.586481690E-1,-1.737661287E-2
2.051125713E1,-2.326868325E-1,-6.742925048E-1,-3.015941009E-2
2.053108291E1,-2.518610358E-1,-6.306179762E-1,-9.999874979E-2
2.055097947E1,-2.550567389E-1,-4.834826291E-1,-1.649779677E-1
2.057087614E1,-2.193048447E-1,-3.683708906E-1,-1.804238409E-1
2.059077640E1,-2.038589716E-1,-3.332182169E-1,-1.399449855E-1
2.061065728E1,-2.246310115E-1,-3.598490357E-1,-8.342105895E-2
2.063055546E1,-2.470674813E-1,-4.056540430E-1,-4.294220731E-2
2.065045598E1,-2.523936629E-1,-4.141759276E-1,-1.471353136E-2
2.067037640E1,-2.561219633E-1,-3.614468873E-1,-4.061201122E-3
2.069026833E1,-2.577198148E-1,-3.256950080E-1,-1.098521519E-2
2.071013067E1,-2.412087023E-1,-3.752949238E-1,-4.826837033E-2
2.073004057E1,-2.054568231E-1,-4.680367708E-1,-9.786828607E-2
2.074990119E1,-1.857500076E-1,-5.197671652E-1,-1.175750941E-1
2.076982442E1,-1.916087866E-1,-5.069177747E-1,-1.079879999E-1
2.078969791E1,-1.862826198E-1,-4.733629227E-1,-1.101184636E-1
2.080957874E1,-1.596518010E-1,-4.318188429E-1,-1.255643368E-1
2.082948494E1,-1.265629977E-1,-3.928712606E-1,-1.319557428E-1
2.084938525E1,-1.068561897E-1,-3.278254569E-1,-1.378145218E-1
2.086924947E1,-9.141030908E-2,-2.607157826E-1,-1.324883550E-1
2.088917973E1,-7.543181628E-2,-2.431394309E-1,-1.053249165E-1
2.090904895E1,-6.531210244E-2,-2.766942680E-1,-7.223611325E-2
2.092893442E1,-6.690994650E-2,-3.001294136E-1,-4.187697172E-2
2.094883786E1,-7.809489965E-2,-2.537917793E-1,-1.930734841E-3
2.096872973E1,-8.075797558E-2,-1.546585262E-1,3.595161438E-2
2.098859780E1,-8.288844675E-2,-5.925358832E-2,7.003907114E-2
2.100848728E1,-8.342105895E-2,2.603163198E-2,1.095192730E-1
2.102841583E1,-7.330134511E-2,1.300249994E-1,1.681070924E-1
2.104829952E1,-4.553871229E-2,2.168415040E-1,2.576532364E-1
2.106819536E1,2.663082560E-4,2.360822707E-1,3.642431200E-1
2.108807682E1,6.318163127E-2,2.584521770E-1,4.521914124E-1
2.110796702E1,1.180411354E-1,3.799552917E-1,5.065848827E-1
2.112785807E1,1.862826198E-1,5.558519363E-1,5.321504474E-1
2.114773687E1,2.763614058E-1,6.672353148E-1,5.854787230E-1
2.116761150E1,3.738967776E-1,7.285528183E-1,6.803510189E-1
2.118751833E1,4.762257338E-1,7.909355164E-1,7.874734998E-1
2.120741942E1,5.908048749E-1,8.031857014E-1,9.004548192E-1
2.122728697E1,7.091788650E-1,5.723630190E-1,1.079014421E0
2.124722369E1,8.408017159E-1,7.722939551E-2,1.373218536E0
2.126709630E1,1.011904836E0,-3.662404418E-1,1.728740096E0
2.128696656E1,1.221356273E0,-6.732272506E-1,2.032531261E0
2.130688369E1,1.494255662E0,-1.167894840E0,2.279332399E0
2.132676723E1,1.878005862E0,-1.838925123E0,2.515481234E0
2.134662025E1,2.364151478E0,-2.360157013E0,2.771802902E0
2.136655796E1,2.874731064E0,-2.665612459E0,2.985581875E0
2.138644546E1,3.397094727E0,-2.904357910E0,3.177456856E0
2.140631848E1,4.041493893E0,-3.180452824E0,3.352288246E0
2.142621942E1,4.928899765E0,-3.607411623E0,3.438638687E0
2.144611088E1,6.052454472E0,-4.490556240E0,3.484443903E0
2.146600541E1,7.542249203E0,-6.177552700E0,3.445030212E0
2.148589859E1,8.824057579E0,-8.393237114E0,3.559076786E0
2.150575447E1,9.490893364E0,-1.072829437E1,3.505215883E0
2.152566791E1,9.316595078E0,-1.296421909E1,3.296297073E0
2.154555421E1,7.863084316E0,-1.167488766E1,2.623136282E0
2.156545702E1,5.599463940E0,-2.264751911E0,3.384245396E0
2.158535067E1,1.366827190E-1,1.181017208E1,6.465498447E0
2.160524515E1,-6.271559238E0,1.539994049E1,5.594071388E0
2.162513015E1,-1.041618156E1,6.081481934E0,3.733641803E-1
2.164502723E1,-1.281408787E1,-2.065952778E0,-5.372436047E0
2.166492359E1,-1.427132607E1,-3.997020721E0,-6.517295361E0
2.168477603E1,-1.431826305E1,-1.400248766E0,-5.267910004E0
2.170469135E1,-1.299424458E1,1.736462951E0,-4.376243591E0
2.172459062E1,-1.127908707E1,2.070080757E0,-3.382181406E0
2.174445656E1,-1.028182888E1,7.392051220E-1,-1.865822196E0
2.176437822E1,-9.326714516E0,1.444056481E-1,-6.191667169E-3
2.178428640E1,-7.548108101E0,1.336734295E0,1.128081799E0
2.180419046E1,-5.440078259E0,3.270931244E0,9.489894509E-1
2.182404880E1,-3.446095467E0,4.148283482E0,8.316806555E-1
2.184393781E1,-1.983530521E0,3.910537004E0,1.037470341E0
2.186379932E1,-1.091863871E0,3.145167112E0,1.212301731E0
2.188370353E1,-4.245619476E-1,2.248640299E0,1.390861392E0
2.190357911E1,1.756303012E-1,1.611764193E0,1.489994645E0
2.192349041E1,7.656362653E-1,1.506705523E0,1.509701490E0
2.194336812E1,1.155245185E0,1.650112510E0,1.599247694E0
2.196328140E1,1.410568237E0,1.528076768E0,1.722881317E0
2.198320270E1,1.738926291E0,1.056378245E0,1.741522789E0
2.200306239E1,1.691989541E0,6.859434843E-1,1.606171727E0
2.202292291E1,1.200584173E0,7.498574853E-1,1.468090892E0
2.204282374E1,1.016165733E0,8.921992183E-1,1.388198376E0
2.206272343E1,1.145125508E0,7.242918611E-1,1.331674457E0
2.208262973E1,1.226682425E0,6.230281591E-1,1.370022774E0
2.210249114E1,1.161703229E0,6.730940938E-1,1.347120285E0
2.212243562E1,1.188866615E0,6.934001446E-1,1.111038089E0
2.214229697E1,1.046524882E0,7.349442244E-1,8.914003372E-1
2.216221853E1,7.928662300E-1,1.009974003E0,8.450626731E-1
2.218208213E1,5.215647221E-1,1.318026185E0,8.082455397E-1
2.220197416E1,3.515268862E-1,1.566425204E0,7.144384980E-1
2.222185900E1,2.364151478E-1,1.824943900E0,6.163704395E-1
2.224175004E1,1.212368309E-1,2.069548130E0,5.428028107E-1
2.226164671E1,3.861469775E-2,2.194313526E0,4.677038789E-1
2.228153687E1,4.234301299E-2,2.114886999E0,4.005276263E-1
2.230140635E1,8.981245756E-2,1.846248507E0,3.498624861E-1
2.232130687E1,1.308239251E-1,1.452378631E0,3.045900762E-1
2.234121682E1,1.458037645E-1,1.048855066E0,2.555227578E-1
2.236108124E1,1.175085157E-1,6.955305934E-1,2.288919389E-1
2.238097588E1,9.194292873E-2,3.890097737E-1,2.059894353E-1
2.240089130E1,7.436657697E-2,1.710364819E-1,1.292260885E-1
2.242074656E1,4.667052254E-2,2.063889056E-3,3.754946589E-2
2.244066338E1,-2.929390874E-3,-1.866155118E-1,-1.205044892E-2
2.246054848E1,-6.797518581E-2,-3.971321881E-1,-1.897446252E-2
2.248043827E1,-1.340196282E-1,-5.170374513E-1,-4.560529068E-2
2.250032786E1,-1.980001926E-1,-5.357456207E-1,-8.768199384E-2
2.252029796E1,-2.326868325E-1,-5.751592517E-1,-1.005313694E-1
2.254010895E1,-2.374803871E-1,-5.661047697E-1,-1.303578913E-1
2.255999921E1,-2.310224175E-1,-4.307536185E-1,-2.230997384E-1
2.257988796E1,-2.299571782E-1,-2.942706347E-1,-2.972000241E-1
2.259977171E1,-2.272941023E-1,-2.548570037E-1,-3.003957272E-1
2.261966228E1,-2.187722325E-1,-2.926727831E-1,-2.870802879E-1
2.263955723E1,-2.225005478E-1,-3.758275211E-1,-2.667742968E-1
2.265946348E1,-2.396108508E-1,-4.435364008E-1,-2.550567389E-1
2.267937458E1,-2.486653328E-1,-4.712324440E-1,-2.566545904E-1
2.269924020E1,-2.310224175E-1,-5.026568174E-1,-2.550567389E-1
2.271915077E1,-1.995980442E-1,-5.250933170E-1,-2.529262602E-1
2.273902364E1,-1.782933772E-1,-5.159722567E-1,-2.428065538E-1
2.275893005E1,-1.601844132E-1,-4.914718866E-1,-2.348173112E-1
2.277882348E1,-1.345522404E-1,-4.696346223E-1,-2.571871877E-1
2.279870254E1,-1.244325340E-1,-4.733629227E-1,-2.833519876E-1
2.281859004E1,-1.452711523E-1,-4.813521802E-1,-2.710352242E-1
2.283847239E1,-1.793586165E-1,-4.611127377E-1,-2.342846841E-1
2.285838473E1,-1.995980442E-1,-4.472647011E-1,-1.996646076E-1
2.287829234E1,-2.011958808E-1,-4.648410678E-1,-1.660431921E-1
2.289817963E1,-2.017285079E-1,-4.611127377E-1,-1.287600398E-1
2.291803780E1,-2.065220475E-1,-3.934038579E-1,-8.501891047E-2
2.293791963E1,-1.868152469E-1,-3.022598624E-1,-4.720313847E-2
2.295784234E1,-1.500647068E-1,-2.366814613E-1,-1.790923066E-2
2.297772400E1,-1.350848675E-1,-1.935395300E-1,7.722939365E-3
2.299761817E1,-1.372153312E-1,-1.562563628E-1,4.713656008E-2
2.301750057E1,-1.286934614E-1,-1.290263534E-1,8.601756394E-2
2.303740463E1,-9.567124397E-2,-1.151783243E-1,1.057909578E-1
2.305727880E1,-8.075797558E-2,-7.789516449E-2,1.228346825E-1
2.307719869E1,-8.395367861E-2,-1.977338828E-2,1.595852226E-1
2.309707499E1,-6.424686313E-2,3.834838793E-2,2.027937323E-1
2.311695489E1,-4.667052254E-2,1.155777797E-1,2.470009029E-1
2.313686963E1,-4.773575440E-2,2.104500979E-1,3.195033371E-1
2.315672666E1,-4.880098626E-2,3.346829116E-1,4.436695576E-1
2.317665452E1,-1.677742042E-2,5.143077970E-1,6.121095419E-1
2.319652447E1,6.477948278E-2,7.104438543E-1,8.284850121E-1
2.321646447E1,2.102503628E-1,8.031857014E-1,1.127016544E0
2.323628812E1,4.309533238E-1,7.797505856E-1,1.538462758E0
2.325619348E1,7.187659740E-1,7.813484073E-1,1.997378469E0
2.327608208E1,1.017763615E0,7.621076703E-1,2.401900768E0
2.329596385E1,1.305576205E0,5.643737912E-1,2.723334789E0
2.331589567E1,1.607769489E0,1.177082509E-1,2.923199177E0
2.333576291E1,1.832733393E0,-3.870124817E-1,2.950895309E0
2.335566171E1,2.215950966E0,-1.064966679E0,3.089508772E0
2.337553239E1,2.852893829E0,-2.124607325E0,3.356549263E0
2.339543380E1,3.647024870E0,-3.329718590E0,3.414071798E0
2.341533421E1,4.547279835E0,-4.554004192E0,3.169467688E0
2.343521588E1,5.721499920E0,-6.067167759E0,2.731856585E0
2.345512557E1,7.774070740E0,-7.844775677E0,1.761296272E0
2.347498635E1,9.082575798E0,-9.532770157E0,1.935528398E0
2.349491395E1,8.756947517E0,-1.010946083E1,2.518144369E0
2.351476426E1,9.227581024E0,-8.319136620E0,1.632802486E0
2.353467754E1,9.356540680E0,-6.181281090E0,1.113701105E0
2.355454864E1,7.807092667E0,-3.712403774E0,2.386454821E0
2.357444978E1,3.206817389E0,1.161370277E0,5.044544220E0
2.359434765E1,-3.023996830E0,6.709370136E0,6.893522263E0
2.361428609E1,-9.175850868E0,8.020539284E0,5.743869781E0
2.363414984E1,-1.286155701E1,6.664031029E0,1.468623400E0
2.365402473E1,-1.366853714E1,5.575629234E0,-3.704680681E0
2.367393452E1,-1.300709438E1,4.065128803E0,-6.742192745E0
2.369380619E1,-1.156796455E1,2.919204473E0,-7.907890320E0
2.371369588E1,-9.916187286E0,2.600966215E0,-8.355621338E0
2.373359005E1,-8.017676353E0,1.348984480E0,-7.817279339E0
2.375348343E1,-7.220815182E0,-9.642356038E-1,-5.990670681E0
2.377338327E1,-7.147779942E0,-1.775477171E0,-3.568197727E0
2.379323744E1,-6.036475658E0,-3.294233084E-1,-1.786928415E0
2.381318020E1,-4.361796379E0,1.369223952E0,-1.088668108E0
2.383304588E1,-2.987712383E0,1.678341150E0,-5.252930522E-1
2.385294984E1,-2.146644354E0,1.275949478E0,2.689713426E-2
2.387283176E1,-1.477744460E0,1.085139513E0,4.143756330E-1
2.389271963E1,-8.370734453E-1,1.290862679E0,7.576469779E-1
2.391262004E1,-2.518610358E-1,1.759898067E0,1.137668848E0
2.393249353E1,1.836195439E-1,2.277468204E0,1.566158891E0
2.395242103E1,4.095821083E-1,2.690512419E0,1.938191533E0
2.397226895E1,5.418041348E-1,2.949031115E0,2.095979214E0
2.399220749E1,6.132413149E-1,3.030055285E0,2.121012211E0
2.401204364E1,5.178363919E-1,2.899431229E0,2.164220572E0
2.403193827E1,3.872122169E-1,2.559954643E0,2.026139736E0
2.405184239E1,3.387441039E-1,2.139919996E0,1.824677587E0
2.407171624E1,3.509942889E-1,1.884596944E0,1.684532881E0
2.409162900E1,6.003919840E-1,1.577610135E0,1.664226890E0
2.411151869E1,1.142995000E0,6.730940938E-1,1.719152927E0
2.413138906E1,1.114766359E0,-1.711696386E-1,1.618954420E0
2.415130067E1,9.314131141E-1,-2.527265251E-1,1.500114441E0
2.417124760E1,8.210949302E-1,1.816888005E-1,1.468623400E0
2.419107687E1,6.079151630E-1,7.722273469E-1,1.477145314E0
2.421096353E1,3.893426657E-1,1.185870647E0,1.483603239E0
2.423087786E1,3.008617461E-1,1.250383854E0,1.501712203E0
2.425076057E1,3.754946291E-1,1.106976867E0,1.381740332E0
2.427067109E1,5.141080618E-1,1.009441495E0,1.116364241E0
2.429054775E1,6.425352693E-1,1.123487949E0,8.615737557E-1
2.431044848E1,7.182333469E-1,1.386800289E0,6.862097979E-1
2.433033083E1,7.049179673E-1,1.514694810E0,5.268242955E-1
2.435022197E1,6.292198300E-1,1.372419596E0,3.712337017E-1
2.437009004E1,4.975304008E-1,1.004647851E0,2.533923090E-1
2.438998322E1,3.472659588E-1,6.288869381E-1,1.606504619E-1
2.440989202E1,1.884130985E-1,3.176391721E-1,8.228924870E-2
2.442975281E1,3.648423031E-2,8.042509109E-2,1.944050193E-2
2.444964859E1,-7.117088139E-2,-1.764292270E-2,-5.572500080E-2
2.446954385E1,-1.356174797E-1,-5.872096866E-2,-1.324883550E-1
2.448942213E1,-1.676410437E-1,-1.380808353E-1,-1.719019860E-1
2.450933536E1,-1.809564531E-1,-2.270943671E-1,-1.890122890E-1
2.452925999E1,-2.033263594E-1,-3.086512685E-1,-1.943384558E-1
2.454911546E1,-2.385456264E-1,-3.720992208E-1,-1.959362924E-1
2.456899786E1,-2.806223333E-1,-4.242956340E-1,-1.900775135E-1
2.458889333E1,-3.083183765E-1,-4.978632927E-1,-1.537930220E-1
2.460878765E1,-2.896768153E-1,-5.538545847E-1,-1.181077138E-1
2.462867145E1,-2.491979450E-1,-5.336151719E-1,-9.893351793E-2
2.464858088E1,-2.251636237E-1,-4.770912528E-1,-7.543181628E-2
2.466846947E1,-2.139786780E-1,-4.195020795E-1,-4.720313847E-2
2.468837077E1,-2.091851383E-1,-3.358812928E-1,-4.986622185E-2
2.470829661E1,-1.900109351E-1,-2.393445522E-1,-1.026618332E-1
2.472818780E1,-1.601844132E-1,-1.770284176E-1,-1.479342431E-1
2.474804650E1,-1.415428370E-1,-1.551911384E-1,-1.436733007E-1
2.476793458E1,-1.334870160E-1,-1.444722265E-1,-1.394123733E-1
2.478783630E1,-9.300816059E-2,-1.396786869E-1,-1.521951705E-1
2.480770124E1,-2.636451647E-2,-1.898112148E-1,-1.623148769E-1
2.482758968E1,3.595161438E-2,-3.187709749E-1,-1.596518010E-1
2.484748369E1,7.383396477E-2,-4.334166944E-1,-1.644453406E-1
2.486738062E1,7.969274372E-2,-4.786891043E-1,-1.863491982E-1
2.488728755E1,6.051855162E-2,-5.266911387E-1,-2.097843289E-1
2.490720041E1,2.210358530E-2,-6.513900161E-1,-2.156431079E-1
2.492703978E1,-1.784265228E-2,-7.606429458E-1,-2.140452564E-1
2.494694786E1,-5.465976894E-2,-7.579798698E-1,-2.023276985E-1
2.496686015E1,-9.620385617E-2,-6.934667230E-1,-1.782933772E-1
2.498674369E1,-1.329544038E-1,-6.039205194E-1,-1.580539495E-1
2.500661103E1,-1.537930220E-1,-4.936023653E-1,-1.474016160E-1
2.502651760E1,-1.788259894E-1,-3.673056662E-1,-1.202381775E-1
2.504639827E1,-2.022611201E-1,-2.426068187E-1,-6.371425092E-2
2.506631583E1,-2.070546746E-1,-1.364829838E-1,1.890788600E-2
2.508621171E1,-1.910761744E-1,-6.404713541E-2,1.286934614E-1
2.510610671E1,-1.399449855E-1,-8.055824786E-3,2.576532364E-1
2.512598400E1,-8.022536337E-2,8.308817446E-2,3.792229593E-1
2.514587036E1,-1.091863867E-2,2.024608552E-1,4.969977736E-1
2.516577130E1,1.089866534E-1,3.426721394E-1,5.924026966E-1
2.518562812E1,2.561219633E-1,5.473300219E-1,6.670355797E-1
2.520553973E1,3.941362202E-1,8.537842631E-1,7.560491562E-1
2.522543223E1,5.157059431E-1,1.238599658E0,8.397365212E-1
2.524530827E1,6.430678368E-1,1.645851612E0,9.057809711E-1
2.526523077E1,7.933988571E-1,1.999775290E0,1.011305571E0
2.528510833E1,9.559134841E-1,2.222009420E0,1.206442952E0
2.530498333E1,1.108374953E0,2.230531454E0,1.463829875E0
2.532489223E1,1.228812814E0,1.910229087E0,1.796448946E0
2.534478140E1,1.287467241E0,1.203979611E0,2.236190319E0
2.536464249E1,1.385002613E0,1.171756312E-1,2.619407892E0
2.538456015E1,1.597649813E0,-1.085805297E0,2.902959824E0
2.540444994E1,1.977139115E0,-2.232262373E0,3.143302917E0
2.542436458E1,2.475002289E0,-3.239639997E0,3.281916380E0
2.544426885E1,3.190239668E0,-4.197417736E0,3.295764446E0
2.546413973E1,4.214727402E0,-5.420105457E0,3.295231819E0
2.548402562E1,5.467241764E0,-7.056436539E0,3.341103315E0
2.550392400E1,6.946318150E0,-8.892631531E0,3.351222992E0
2.552379603E1,8.747893333E0,-1.062223721E1,3.193968058E0
2.554367338E1,9.851674080E0,-1.199092865E1,2.577797413E0
2.556357723E1,9.461000443E0,-1.330163097E1,1.493723035E0
2.558345322E1,7.407364368E0,-1.177934647E1,1.384403467E0
2.560334697E1,3.493032217E0,9.518522620E-1,4.162930489E0
2.562323848E1,-2.810217857E0,1.680970955E1,5.888275146E0
2.564316114E1,-7.610956669E0,1.479335690E1,2.973331690E0
2.566304702E1,-8.972257614E0,1.303645492E0,-3.971654654E0
2.568291374E1,-1.007983398E1,-7.591582775E0,-7.502303123E0
2.570282827E1,-1.087989044E1,-7.106568813E0,-5.658650875E0
2.572271473E1,-1.066824245E1,-1.126284242E0,-3.858673573E0
2.574260030E1,-9.693420410E0,2.608955383E0,-2.985648394E0
2.576248072E1,-8.349163055E0,1.851042151E0,-1.814624429E0
2.578239010E1,-7.437723160E0,-5.400065780E-1,2.688381970E-1
2.580228280E1,-6.664896488E0,-5.874094367E-1,1.610965252E0
2.582220588E1,-5.604790211E0,1.178946614E0,1.812960029E0
2.584206520E1,-4.549942970E0,2.598835707E0,1.707967997E0
2.586194473E1,-3.961002350E0,3.295498133E0,1.325815678E0
2.588181676E1,-3.528717518E0,3.371196270E0,1.075818777E0
2.590173786E1,-2.761749744E0,3.064675331E0,9.894683361E-1
2.592163223E1,-1.735730648E0,2.740644932E0,9.089766741E-1
2.594151911E1,-8.493236303E-1,2.634054899E0,8.263545036E-1
2.596140265E1,-3.866795897E-1,2.350503206E0,7.165689468E-1
2.598128812E1,-1.100518852E-1,1.400648236E0,5.971962810E-1
2.600123781E1,1.846847683E-1,4.636426866E-1,6.083812118E-1
2.602107452E1,3.323526978E-1,6.134410501E-1,6.851445436E-1
2.604098442E1,4.698343277E-1,1.197588205E0,5.945332050E-1
2.606086036E1,6.579810977E-1,9.481239915E-1,6.094464660E-1
2.608076275E1,4.154408872E-1,6.709636450E-1,8.535845280E-1
2.610064916E1,5.359453708E-2,1.291395307E0,9.100418687E-1
2.612054333E1,5.242277980E-1,2.290783644E0,8.700956702E-1
2.614043353E1,1.106244445E0,2.594042063E0,1.036937714E0
2.616034327E1,9.649679661E-1,2.383525372E0,1.294857264E0
2.618025635E1,9.207608104E-1,2.038656235E0,1.545919418E0
2.620010911E1,9.042496681E-1,1.887260079E0,1.456373334E0
2.622000780E1,8.226927519E-1,1.762561202E0,1.090732098E0
2.623988072E1,5.503259897E-1,1.291395307E0,8.135717511E-1
2.625974911E1,2.502631843E-1,9.465261102E-1,6.691660881E-1
2.627964614E1,1.628475040E-1,1.153913617E0,5.801525116E-1
2.629953635E1,2.219679356E-1,1.306841135E0,5.167046189E-1
2.631944702E1,2.705025971E-1,8.521864414E-1,4.442021847E-1
2.633934671E1,2.758287787E-1,3.400090635E-1,3.722989559E-1
2.635921984E1,2.219679356E-1,2.435389012E-1,2.918072641E-1
2.637910114E1,1.452711523E-1,3.671725094E-1,2.507292330E-1
2.639898135E1,7.969274372E-2,4.178376496E-1,2.209026963E-1
2.641887380E1,4.074516147E-2,3.325524330E-1,1.617156863E-1
2.643876228E1,2.050573565E-2,2.104500979E-1,1.031278744E-1
2.645865463E1,3.994623665E-3,1.182408631E-1,3.488638252E-2
2.647857057E1,-1.038602181E-2,2.709686570E-2,-5.998593569E-2
2.649847499E1,-3.062544949E-2,-5.872096866E-2,-1.569887102E-1
2.651834765E1,-7.543181628E-2,-1.295589656E-1,-2.049907744E-1
2.653829583E1,-1.153780520E-1,-2.212355882E-1,-2.065886259E-1
2.655812603E1,-1.334870160E-1,-3.619794846E-1,-1.874144375E-1
2.657802932E1,-1.324217767E-1,-5.101134777E-1,-1.543256342E-1
2.659792400E1,-1.388797611E-1,-5.863441825E-1,-1.431406885E-1
2.661780708E1,-1.394123733E-1,-5.959312916E-1,-1.580539495E-1
2.663770744E1,-1.458037645E-1,-5.506588817E-1,-1.676410437E-1
2.665759468E1,-1.340196282E-1,-4.946675897E-1,-1.623148769E-1
2.667748395E1,-1.079214215E-1,-4.456668794E-1,-1.585865617E-1
2.669736395E1,-9.034507722E-2,-4.216325581E-1,-1.292926520E-1
2.671727057E1,-9.567124397E-2,-4.083171189E-1,-1.005313694E-1
2.673719885E1,-1.052583382E-1,-3.896755576E-1,-1.074553803E-1
2.675704531E1,-9.247554094E-2,-3.699687421E-1,-1.143793985E-1
2.677693301E1,-7.117088139E-2,-3.641099632E-1,-9.946613014E-2
2.679684077E1,-6.797518581E-2,-3.726318181E-1,-9.786828607E-2
2.681674525E1,-7.436657697E-2,-3.997952640E-1,-9.893351793E-2
2.683660296E1,-7.596442848E-2,-4.141759276E-1,-8.342105895E-2
2.685650551E1,-5.945331976E-2,-4.163063765E-1,-5.572500080E-2
2.687639843E1,-5.359453708E-2,-4.077845216E-1,-3.282249346E-2
2.689629187E1,-7.649704814E-2,-3.678382933E-1,-2.483324520E-2
2.691618728E1,-1.148454323E-1,-2.905423045E-1,-4.507267103E-2
2.693607942E1,-1.377479434E-1,-2.302900702E-1,-6.531210244E-2
2.695594708E1,-1.302913129E-1,-2.063223273E-1,-6.211639941E-2
2.697584754E1,-1.116497368E-1,-1.871481240E-1,-4.027912393E-2
2.699574890E1,-1.079214215E-1,-1.295589656E-1,7.989247679E-4
2.701562942E1,-1.057909578E-1,-6.244928762E-2,5.672365800E-2
2.703551697E1,-9.780170768E-2,-1.664426643E-3,1.260303855E-1
2.705543015E1,-9.300816059E-2,6.817491353E-2,2.464682907E-1
2.707532968E1,-7.330134511E-2,1.811561882E-1,4.399412274E-1
2.709521025E1,-4.021254554E-2,3.740965128E-1,6.366099119E-1
2.711508213E1,6.125089712E-3,6.347457170E-1,8.327459097E-1
2.713496801E1,7.383396477E-2,8.879383206E-1,1.063568592E0
2.715488666E1,1.676410437E-1,1.021159053E0,1.348718166E0
2.717474937E1,3.136445582E-1,1.064367533E0,1.648780942E0
2.719467473E1,5.327496529E-1,1.151783228E0,1.932332754E0
2.721452812E1,8.013881445E-1,1.304710746E0,2.234060049E0
2.723445150E1,1.025752783E0,1.422485590E0,2.600233793E0
2.725434359E1,1.265097380E0,1.340995193E0,2.954090834E0
2.727428645E1,1.505440593E0,1.055845618E0,3.204620361E0
2.729409067E1,1.721349955E0,7.594445944E-1,3.336309910E0
2.731398958E1,2.098708868E0,2.515281439E-1,3.526054382E0
2.733387916E1,2.524535656E0,-5.069177747E-1,3.767462969E0
2.735378228E1,2.932320118E0,-1.394389987E0,3.941761732E0
2.737367385E1,3.496760607E0,-2.570740223E0,4.049949169E0
2.739357869E1,4.269587040E0,-4.324313641E0,4.242889881E0
2.741345880E1,5.368108749E0,-6.799515724E0,4.459864140E0
2.743336421E1,7.016157150E0,-9.352612495E0,4.376709461E0
2.745325890E1,7.850301266E0,-1.107689190E1,4.103810310E0
2.747312406E1,8.606616974E0,-1.216309738E1,3.455682516E0
2.749303848E1,8.905081749E0,-1.302979755E1,2.402433395E0
2.751293119E1,8.064546585E0,-1.266096020E1,1.764491916E0
2.753281187E1,5.954918861E0,-6.032015324E0,2.958351851E0
2.755270353E1,1.881734133E0,8.535379410E0,5.496003151E0
2.757259666E1,-4.713589668E0,1.678893852E1,5.241212845E0
2.759247890E1,-8.776122093E0,9.372718811E0,9.612396359E-1
2.761238921E1,-1.050572777E1,-4.328840673E-1,-5.673031807E0
2.763228963E1,-1.246023083E1,-4.899938583E0,-8.053427696E0
2.765220223E1,-1.345635605E1,-3.317468405E0,-6.599384785E0
2.767203166E1,-1.265050793E1,1.010506630E0,-5.471569538E0
2.769191926E1,-1.098594761E1,2.567411423E0,-4.470050812E0
2.771182598E1,-1.019228268E1,6.352783442E-1,-2.754293203E0
2.773173432E1,-9.439695358E0,-8.773525357E-1,-5.423367620E-1
2.775161921E1,-7.657361031E0,5.191013813E-1,1.569221467E-1
2.777149786E1,-5.601594448E0,2.506626368E0,-1.479342431E-1
2.779137338E1,-3.885836840E0,3.209680319E0,-1.980667710E-1
2.781126161E1,-2.850230694E0,2.982053280E0,-2.326868325E-1
2.783119770E1,-2.243647099E0,2.416015148E0,-2.651764452E-1
2.785107744E1,-1.620086312E0,2.125006676E0,-1.521951705E-1
2.787094770E1,-8.381386399E-1,2.249705553E0,8.814803511E-2
2.789086755E1,-1.521951705E-1,2.191650391E0,4.719648063E-1
2.791074999E1,2.694373727E-1,1.804171801E0,8.279523849E-1
2.793062239E1,5.748263597E-1,1.431074023E0,1.150451660E0
2.795051176E1,8.599759340E-1,1.449182987E0,1.465960383E0
2.797042317E1,8.642368913E-1,1.881401300E0,1.791655421E0
2.799029551E1,7.304835320E-1,2.156963825E0,1.927006483E0
2.801024020E1,8.003228903E-1,1.690591335E0,1.925941348E0
2.803010473E1,6.963961124E-1,1.112835646E0,2.061891556E0
2.804998895E1,4.368121028E-1,1.347919226E0,2.100239992E0
2.806989077E1,4.341490269E-1,1.957099319E0,1.852440238E0
2.808976156E1,6.297524571E-1,1.855303049E0,1.713826776E0
2.810966031E1,9.831435084E-1,1.199186087E0,1.765024543E0
2.812954208E1,1.327413559E0,8.527190089E-1,1.662629008E0
2.814945734E1,1.449515820E0,9.993217587E-1,1.416427016E0
2.816932504E1,1.399383307E0,1.159239888E0,1.325283051E0
2.818924275E1,1.202182055E0,1.237001896E0,1.195191503E0
2.820916385E1,9.122389555E-1,1.319623947E0,9.553808570E-1
2.822900260E1,6.478614211E-1,1.464096189E0,7.581796050E-1
2.824891400E1,5.540543199E-1,1.618688107E0,5.886744261E-1
2.826880031E1,4.985956252E-1,1.483270407E0,3.941362202E-1
2.828868525E1,4.015928507E-1,1.161902905E0,2.640446424E-1
2.830856531E1,3.296896219E-1,9.273519516E-1,1.297587007E-1
2.832846666E1,2.449370176E-1,8.138380051E-1,-2.643109486E-2
2.834833786E1,8.235582709E-2,7.354768515E-1,-1.154446304E-1
2.836825421E1,-6.211639941E-2,5.441343188E-1,-1.426080763E-1
2.838813833E1,-1.569887102E-1,1.763626486E-1,-1.639127284E-1
2.840801093E1,-1.878804713E-1,-2.436720580E-1,-2.113821805E-1
2.842791270E1,-1.916087866E-1,-5.474631786E-1,-2.619807422E-1
2.844778270E1,-2.123808414E-1,-6.444659829E-1,-2.870802879E-1
2.846768202E1,-2.465348691E-1,-5.868768096E-1,-2.758287787E-1
2.848757583E1,-2.678395212E-1,-5.772897005E-1,-2.444044054E-1
2.850747994E1,-2.705025971E-1,-6.876079440E-1,-2.076538652E-1
2.852733952E1,-2.774266303E-1,-8.347432017E-1,-1.681736708E-1
2.854727718E1,-3.072531521E-1,-8.912671804E-1,-1.298252791E-1
2.856712447E1,-3.387441039E-1,-8.123733401E-1,-9.680305421E-2
2.858703385E1,-3.744294047E-1,-6.471290588E-1,-5.412715301E-2
2.860690880E1,-4.047885537E-1,-4.371449947E-1,1.251648832E-2
2.862681093E1,-4.127778113E-1,-2.334857583E-1,8.228924870E-2
2.864671109E1,-3.989297748E-1,-5.492607877E-2,1.489328891E-1
2.866660432E1,-3.573856652E-1,7.243584841E-2,2.432725877E-1
2.868651239E1,-2.918072641E-1,1.598515362E-1,3.381448984E-1
2.870639327E1,-2.065220475E-1,2.344844192E-1,3.920057416E-1
2.872627978E1,-1.105845049E-1,3.309545815E-1,3.952014446E-1
2.874621838E1,1.864157850E-3,4.535229504E-1,3.946688473E-1
2.876611906E1,1.372153312E-1,5.627759099E-1,4.239627421E-1
2.878597046E1,2.992638946E-1,6.533873081E-1,4.661060274E-1
2.880586338E1,4.453339875E-1,7.642381191E-1,5.097805858E-1
2.882572635E1,5.503259897E-1,8.964601755E-1,5.502594113E-1
2.884563525E1,6.430678368E-1,1.002517462E0,6.062507629E-1
2.886551036E1,7.150376439E-1,1.045126796E0,6.952642798E-1
2.888542786E1,7.485924959E-1,1.047257185E0,8.178326488E-1
2.890529135E1,7.432663441E-1,1.084074378E0,9.521851540E-1
2.892521593E1,7.187659740E-1,1.111770391E0,1.127549171E0
2.894507687E1,6.691660881E-1,1.054181218E0,1.397785425E0
2.896498874E1,6.425352693E-1,9.390695095E-1,1.660498500E0
2.898486223E1,6.089804173E-1,6.923348904E-1,1.953171372E0
2.900475421E1,5.290213227E-1,3.330850601E-1,2.243647099E0
2.902464656E1,4.138430357E-1,2.070546709E-2,2.469077110E0
2.904453130E1,4.549210668E-1,-2.452699095E-1,2.721736908E0
2.906443432E1,7.065157890E-1,-5.778223276E-1,3.046832800E0
2.908435171E1,1.017763615E0,-1.116697073E0,3.449290991E0
2.910424947E1,1.385002613E0,-1.827740192E0,3.798421144E0
2.912411426E1,1.886527658E0,-2.687449694E0,3.948153019E0
2.914399103E1,2.447239637E0,-3.801417112E0,3.975849152E0
2.916389890E1,3.031985998E0,-5.251199245E0,4.033970833E0
2.918377031E1,3.628383398E0,-7.001044273E0,4.135234833E0
2.920368025E1,4.249347687E0,-8.712473869E0,4.131506443E0
2.922356713E1,4.592618942E0,-1.018356133E1,4.005742073E0
2.924344119E1,4.792483330E0,-1.137322712E1,3.840497971E0
2.926334270E1,4.779168129E0,-1.189978504E1,3.697090864E0
2.928323577E1,4.069190025E0,-9.645218849E0,3.542032957E0
2.930313208E1,1.965954065E0,-3.312142372E0,4.304207325E0
2.932302317E1,-2.106165409E0,5.160454750E0,5.599397182E0
2.934292442E1,-7.204836845E0,1.140931129E1,4.293554783E0
2.936280921E1,-1.017310810E1,1.258779240E1,-5.562513471E-1
2.938266947E1,-1.035912514E1,9.840689659E0,-7.187792778E0
2.940258906E1,-9.578841209E0,4.101346970E0,-1.179133034E1
2.942246484E1,-9.004747391E0,-2.245577812E0,-1.274378204E1
2.944238812E1,-8.813938141E0,-5.592806339E0,-1.152162743E1
2.946228416E1,-8.078927040E0,-6.272957325E0,-8.736708641E0
2.948219249E1,-7.232532978E0,-5.988873005E0,-4.018058777E0
2.950202786E1,-6.128152370E0,-2.759952307E0,-2.289585173E-1
2.952192364E1,-4.472647190E0,1.269025445E0,1.478743196E0
2.954181072E1,-2.929657221E0,3.327455044E0,2.249505758E0
2.956168791E1,-2.008097410E0,3.673922062E0,2.391248465E0
2.958160348E1,-1.128614426E0,3.369065762E0,2.449902773E0
2.960148557E1,-2.566545904E-1,3.409544706E0,2.647104025E0
2.962137051E1,5.513912439E-1,3.684041739E0,2.705225945E0
2.964125817E1,1.057177186E0,3.188908100E0,2.576199532E0
2.966123614E1,1.012437463E0,2.221476793E0,2.513883352E0
2.968104322E1,9.212934375E-1,1.587197185E0,2.404031277E0
2.970093322E1,1.043329120E0,1.105378985E0,2.182329655E0
2.972086682E1,1.056644559E0,7.067155242E-1,2.137057066E0
2.974072765E1,7.858756781E-1,7.450639009E-1,1.968084574E0
2.976062994E1,6.872750521E-1,9.380042553E-1,1.583801746E0
2.978050869E1,6.063173413E-1,1.139999032E0,1.471286535E0
2.980042630E1,6.143065691E-1,1.699113250E0,1.577410340E0
2.982031265E1,8.700956702E-1,2.258826733E0,1.496386051E0
2.984021609E1,9.425980449E-1,2.165552139E0,1.307174087E0
2.986010661E1,6.446657181E-1,1.544055223E0,1.233606458E0
2.987998015E1,3.536573648E-1,1.124553204E0,1.250650167E0
2.989988671E1,1.639127284E-1,1.256775260E0,1.158973575E0
2.991973822E1,2.134460658E-1,1.713027835E0,1.035339952E0
2.993961916E1,4.629103243E-1,2.272674561E0,1.028948545E0
2.995951525E1,6.025890112E-1,2.614814281E0,1.034807324E0
2.997944265E1,7.017222643E-1,2.512485266E0,9.308804870E-1
2.999933234E1,8.434648514E-1,2.072810411E0,7.789516449E-1
3.001921447E1,9.314131141E-1,1.593588591E0,5.828156471E-1
3.003908999E1,9.676310420E-1,1.319091320E0,3.594495654E-1
3.005898739E1,9.207608104E-1,1.177348852E0,2.129134536E-1
3.007890317E1,8.088447452E-1,1.094726682E0,1.350848675E-1
3.009878754E1,6.377416849E-1,9.684299827E-1,7.589785010E-2
3.011866864E1,4.261597991E-1,6.810833812E-1,-7.789516356E-3
3.013853416E1,2.539914846E-1,2.525933683E-1,-1.170424819E-1
3.015845338E1,1.340196282E-1,-1.935395300E-1,-2.236323506E-1
3.017836567E1,3.994623665E-3,-5.154396296E-1,-2.774266303E-1
3.019826687E1,-1.313565522E-1,-6.327484250E-1,-2.747635543E-1
3.021816484E1,-2.444044054E-1,-5.613112450E-1,-2.881455421E-1
3.023806218E1,-3.280917704E-1,-4.477973282E-1,-3.456681073E-1
3.025790536E1,-3.930709958E-1,-4.275579154E-1,-4.192357659E-1
3.027781057E1,-4.288228750E-1,-5.159722567E-1,-4.693683088E-1
3.029767353E1,-4.650408030E-1,-6.503247619E-1,-4.570515454E-1
3.031758275E1,-5.194342732E-1,-7.686322331E-1,-4.149748385E-1
3.033744499E1,-5.657718778E-1,-8.864070177E-1,-3.525921404E-1
3.035735869E1,-5.870765448E-1,-1.024487853E0,-2.812215090E-1
3.037724661E1,-5.849460959E-1,-1.112968802E0,-2.438717782E-1
3.039712650E1,-5.854787230E-1,-1.102849007E0,-2.332194597E-1
3.041702640E1,-5.886744261E-1,-1.031944513E0,-2.129800320E-1
3.043692963E1,-5.684349537E-1,-9.408004880E-1,-2.023276985E-1
3.045680406E1,-5.402063131E-1,-8.661676049E-1,-1.777607650E-1
3.047669130E1,-5.087153316E-1,-8.208951950E-1,-1.282274276E-1
3.049657718E1,-4.788888097E-1,-8.049166799E-1,-9.141030908E-2
3.051645968E1,-4.453339875E-1,-8.027862310E-1,-6.531210244E-2
3.053636822E1,-4.058537781E-1,-7.670343518E-1,-6.371425092E-2
3.055624650E1,-3.701684773E-1,-7.180336118E-1,-6.424686313E-2
3.057613541E1,-3.467333615E-1,-6.460638046E-1,-4.773575440E-2
3.059603833E1,-3.334179223E-1,-5.288216472E-1,-2.057231218E-2
3.061593890E1,-3.221664131E-1,-3.923386335E-1,1.624480449E-2
3.063583640E1,-3.045900762E-1,-2.942706347E-1,4.553871229E-2
3.065573223E1,-2.726330757E-1,-2.548570037E-1,7.376738638E-2
3.067563244E1,-2.476001084E-1,-2.057897002E-1,1.121823564E-1
3.069550666E1,-2.353499234E-1,-1.034607589E-1,1.494655013E-1
3.071541692E1,-2.316216081E-1,8.987903595E-3,2.187722325E-1
3.073529228E1,-2.155765295E-1,1.337533146E-1,3.157750070E-1
3.075520770E1,-1.766955256E-1,2.893439233E-1,3.952014446E-1
3.077506166E1,-1.372153312E-1,4.508598745E-1,4.527240396E-1
3.079496614E1,-1.159106717E-1,5.558519363E-1,5.348135829E-1
3.081488187E1,-1.057909578E-1,6.081148982E-1,6.408708096E-1
3.083477015E1,-7.010564953E-2,6.960632205E-1,7.453967929E-1
3.085462494E1,-7.989247679E-4,8.708945513E-1,8.381386399E-1
3.087452661E1,8.501891047E-2,1.041931033E0,9.180311561E-1
3.089443536E1,1.591191888E-1,1.127748847E0,9.947944880E-1
3.091434124E1,2.075872868E-1,1.170424819E0,1.106177926E0
3.093424708E1,2.715678513E-1,1.235936642E0,1.222954035E0
3.095411301E1,4.031907022E-1,1.248253345E0,1.323685169E0
3.097397406E1,5.439345837E-1,1.164033413E0,1.452644944E0
3.099387624E1,6.792857647E-1,1.041931033E0,1.576877713E0
3.101376958E1,7.997902632E-1,9.166995883E-1,1.649846196E0
3.103365786E1,9.191629291E-1,7.599771619E-1,1.724479079E0
3.105356234E1,1.051318407E0,5.180361271E-1,1.840656042E0
3.107342515E1,1.189399242E0,1.625146121E-1,1.936061025E0
3.109332281E1,1.267227888E0,-3.288906813E-1,1.978204250E0
3.111324150E1,1.269890904E0,-7.084465623E-1,1.956367016E0
3.113311182E1,1.439396143E0,-1.124153733E0,1.977671742E0
3.115298999E1,1.781002998E0,-1.776542425E0,2.034129143E0
3.117291499E1,2.183461428E0,-2.730059147E0,2.036326170E0
3.119279952E1,2.681790829E0,-4.161732197E0,2.063489437E0
3.121268916E1,3.237176657E0,-6.153518200E0,2.183394909E0
3.123255869E1,4.346883297E0,-8.540838242E0,2.002171993E0
3.125246530E1,5.472568035E0,-1.069733620E1,1.560300112E0
3.127237130E1,5.688943386E0,-1.172661781E1,2.263886452E0
3.129227442E1,5.405391693E0,-1.072190285E1,3.568663836E0
3.131210963E1,6.062108040E0,-6.938661575E0,4.027046680E0
3.133203338E1,6.169230461E0,-2.273273945E0,4.822309971E0
3.135193499E1,4.026580811E0,1.036604881E0,6.578013420E0
3.137181807E1,3.962666988E-1,2.861615419E0,7.261826515E0
3.139171650E1,-3.798421144E0,3.984104633E0,5.517307758E0
3.141160817E1,-7.341785908E0,4.170653820E0,1.174952030E0
3.143149640E1,-9.480707169E0,3.135580063E0,-4.484963894E0
3.145135244E1,-1.099446964E1,1.620285988E0,-8.583181381E0
3.147126874E1,-1.190697479E1,5.483952761E-1,-1.017470646E1
3.149121281E1,-1.170118523E1,3.549223244E-1,-9.950874329E0
3.151104166E1,-1.038628864E1,1.433404237E-1,-8.459547997E0
3.153093708E1,-9.259537697E0,-1.026085734E0,-5.808915615E0
3.155083333E1,-8.723326683E0,-1.751509428E0,-2.418012381E0
3.157072838E1,-7.495312214E0,-5.772897005E-1,2.379464209E-1
3.159059515E1,-5.709249496E0,1.589327693E0,1.001718521E0
3.161050010E1,-3.989231110E0,2.386188507E0,1.262367725E0
3.163040223E1,-2.775597811E0,1.889457107E0,1.273552656E0
3.165032499E1,-1.868418694E0,1.068628430E0,1.156843066E0
3.167020275E1,-1.112635851E0,8.244903684E-1,1.232541203E0
3.169005504E1,-4.698343277E-1,1.465694070E0,1.320489526E0
3.170994812E1,8.501891047E-2,2.170878410E0,1.246389270E0
3.172985973E1,4.463992119E-1,2.034927845E0,1.076884031E0
3.174975182E1,7.283530831E-1,1.159772396E0,1.022557139E0
3.176963687E1,1.179279566E0,2.557890713E-1,1.211236477E0
3.178953182E1,1.495853424E0,1.198387146E-1,1.607236862E0
3.180942192E1,1.459635496E0,8.767533302E-1,1.916354179E0
3.182929494E1,1.390861392E0,1.750311017E0,1.922212958E0
3.184919583E1,1.325283051E0,2.066884995E0,1.921680331E0
3.186908728E1,1.034274697E0,2.150039673E0,2.164753199E0
3.188899463E1,8.248232603E-1,2.477332592E0,2.211090803E0
3.190886030E1,8.216275573E-1,2.598303080E0,1.989389300E0
3.192878124E1,7.651036382E-1,1.993916512E0,1.923278213E0
3.194866369E1,8.045838475E-1,9.758865833E-1,2.014422178E0
3.196854432E1,1.187268734E0,2.238320857E-1,1.817220926E0
3.198844036E1,1.382872224E0,3.597158790E-1,1.396720171E0
3.200832041E1,1.426546693E0,8.703619838E-1,1.242128253E0
3.202825062E1,1.314098120E0,1.226349473E0,1.288998485E0
3.204811791E1,1.074820161E0,1.437465429E0,1.190397859E0
3.206799406E1,8.925321102E-1,1.515760064E0,1.020959258E0
3.208789624E1,8.408017159E-1,1.439595819E0,9.308804870E-1
3.210780109E1,8.738239408E-1,1.197588205E0,8.509214520E-1
3.212768421E1,9.090432525E-1,9.844084978E-1,7.181667686E-1
3.214756874E1,8.594433069E-1,1.006245732E0,5.412049294E-1
3.216747952E1,7.278204560E-1,1.182675004E0,3.317535222E-1
3.218735426E1,5.492607951E-1,1.210903645E0,1.366827190E-1
3.220726463E1,3.659075499E-1,9.539827704E-1,-1.398118329E-3
3.222717817E1,1.990654171E-1,4.828168750E-1,-8.075797558E-2
3.224700775E1,5.252930522E-2,-1.924077235E-2,-1.207707971E-1
3.226690338E1,-5.732285231E-2,-3.928712606E-1,-1.202381775E-1
3.228680822E1,-1.553908736E-1,-6.497921348E-1,-9.946613014E-2
3.230667577E1,-2.657090724E-1,-8.054493070E-1,-1.244991124E-1
3.232658833E1,-3.760272563E-1,-8.448629379E-1,-2.081864774E-1
3.234646551E1,-4.874106944E-1,-7.910020947E-1,-2.630459666E-1
3.236634301E1,-5.705654621E-1,-7.089791298E-1,-2.539914846E-1
3.238624869E1,-5.860112906E-1,-7.073813081E-1,-1.906101406E-1
3.240614848E1,-5.567173958E-1,-8.480586410E-1,-1.250317246E-1
3.242604041E1,-5.258256793E-1,-9.946613312E-1,-1.079879999E-1
3.244591171E1,-5.060522556E-1,-1.018629074E0,-1.266295761E-1
3.246580900E1,-4.975304008E-1,-1.021824837E0,-1.596518010E-1
3.248569447E1,-4.714321792E-1,-1.084207535E0,-2.012624592E-1
3.250557978E1,-4.410730600E-1,-1.131077766E0,-2.193714231E-1
3.252547807E1,-4.250945449E-1,-1.074620366E0,-1.991319954E-1
3.254537036E1,-3.920057416E-1,-9.679639339E-1,-1.537930220E-1
3.256528041E1,-3.446028829E-1,-8.949954510E-1,-1.058575287E-1
3.258519780E1,-3.083183765E-1,-8.358084559E-1,-5.785546824E-2
3.260504812E1,-2.816875577E-1,-7.260228992E-1,-3.228987753E-2
3.262496109E1,-2.710352242E-1,-5.911377668E-1,-3.655080870E-2
3.264486156E1,-2.673069239E-1,-4.952002168E-1,-3.495295718E-2
3.266472051E1,-2.539914846E-1,-4.568518102E-1,-7.789516356E-3
3.268461916E1,-2.316216081E-1,-3.912734091E-1,9.853405878E-3
3.270452228E1,-1.980001926E-1,-2.372140735E-1,2.370143496E-2
3.272441192E1,-1.516625583E-1,-2.403431945E-2,6.098458916E-2
3.274432333E1,-9.194292873E-2,2.035260797E-1,1.089866534E-1
3.276422895E1,-2.689713426E-2,4.049882889E-1,1.547916681E-1
3.278410609E1,4.234301299E-2,5.782217979E-1,2.171743810E-1
3.280395708E1,1.143128201E-1,7.455965281E-1,3.035248220E-1
3.282389307E1,1.825543046E-1,8.937970996E-1,3.925383687E-1
3.284375630E1,2.550567389E-1,9.966586232E-1,4.890085459E-1
3.286363161E1,3.307548463E-1,1.065432787E0,5.966636539E-1
3.288351463E1,4.111799598E-1,1.141596913E0,7.197646499E-1
3.290343958E1,5.001934767E-1,1.206110120E0,8.482583761E-1
3.292333911E1,5.881417990E-1,1.266362309E0,9.607070088E-1
3.294321114E1,6.569159031E-1,1.347919226E0,1.067296863E0
3.296310395E1,6.953308582E-1,1.491792321E0,1.211236477E0
3.298298583E1,7.139724493E-1,1.749778390E0,1.410035610E0
3.300287557E1,7.501903772E-1,1.972012639E0,1.562963128E0
3.302278869E1,7.789516449E-1,2.017351627E0,1.778872609E0
3.304265406E1,7.965945601E-1,1.866487980E0,2.060293913E0
3.306254838E1,7.907357812E-1,1.644253731E0,2.299039125E0
3.308246504E1,7.145050764E-1,1.581338406E0,2.449370146E0
3.310236036E1,5.087153316E-1,1.651177764E0,2.654560804E0
3.312229187E1,4.900737703E-1,1.323352337E0,2.989842892E0
3.314212322E1,6.744922400E-1,7.083134055E-1,3.261144400E0
3.316201072E1,9.441959262E-1,-1.210371032E-1,3.353353500E0
3.318190364E1,1.325815678E0,-1.243526459E0,3.419930696E0
3.320181249E1,2.080000639E0,-3.525322199E0,3.680047274E0
3.322169510E1,3.778181791E0,-6.813430309E0,3.285112143E0
3.324156176E1,4.656000614E0,-8.170936584E0,1.652509332E0
3.326150046E1,5.259921074E0,-8.831314087E0,6.041202545E-1
3.328137041E1,5.538679123E0,-9.148487091E0,7.949301600E-1
3.330124551E1,5.351597786E0,-8.267406464E0,1.317826390E0
3.332123114E1,5.423034668E0,-6.382743359E0,1.903571367E0
3.334102380E1,5.562114239E0,-4.088164806E0,2.962146759E0
3.336094411E1,4.725839615E0,-2.235990763E0,4.422514439E0
3.338081853E1,3.159348011E0,-1.313898325E0,5.827490330E0
3.340071494E1,1.420687914E0,-1.383205056E0,6.870619774E0
3.342058557E1,-8.194971085E-1,-1.421020865E0,6.756573200E0
3.344049353E1,-4.330371857E0,5.073838234E-1,5.087686062E0
3.346040853E1,-7.523540974E0,4.125380993E0,1.444655657E0
3.348028051E1,-9.641690254E0,5.188150883E0,-3.222263336E0
3.350019255E1,-1.089320564E1,2.288653135E0,-6.772085667E0
3.352005046E1,-1.164526081E1,-9.360069633E-1,-8.118407249E0
3.353994708E1,-1.174173069E1,-1.332539916E0,-7.838583946E0
3.355985661E1,-1.081963825E1,2.595174015E-1,-7.380200863E0
3.357970765E1,-9.057010651E0,-6.351451576E-2,-6.207112789E0
3.359962567E1,-7.645110607E0,-2.366015673E0,-2.964876413E0
3.361950937E1,-6.735268593E0,-1.673148155E0,-6.436004639E-1
3.363939978E1,-5.555722713E0,7.738252282E-1,1.707701683E-1
3.365928598E1,-4.450809956E0,1.697515368E0,7.981258631E-1
3.367919109E1,-3.900750160E0,1.514162183E0,8.945959806E-1
3.369907921E1,-3.247296333E0,1.127216220E0,7.565817833E-1
3.371895030E1,-2.340649843E0,1.086204767E0,7.682993412E-1
3.373889312E1,-1.426546693E0,1.728473783E0,9.372718930E-1
3.375874051E1,-6.020563841E-1,2.864278555E0,1.226149797E0
3.377863728E1,-3.861469775E-2,3.858340502E0,1.620552301E0
3.379851645E1,1.671084315E-1,4.397747993E0,2.055500269E0
3.381843473E1,1.649779677E-1,4.558132172E0,2.423804522E0
3.383833666E1,1.772281379E-1,4.474444866E0,2.730258703E0
3.385823187E1,2.385456264E-1,4.039563179E0,2.964277267E0
3.387809489E1,1.889457107E-1,3.132384300E0,3.016473532E0
3.389799572E1,1.452711523E-1,2.161757231E0,2.888579130E0
3.391791291E1,2.171743810E-1,1.516292691E0,2.828859568E0
3.393774546E1,4.863454401E-1,1.107509494E0,2.818739653E0
3.395765030E1,6.862097979E-1,4.316856861E-1,2.622603655E0
3.397753593E1,5.306192040E-1,-2.169746459E-1,2.339584589E0
3.399744952E1,3.211011887E-1,-1.338198967E-2,2.103968382E0
3.401735182E1,4.304207265E-1,7.610424161E-1,1.810296893E0
3.403722254E1,7.794842720E-1,1.150185347E0,1.640791774E0
3.405720171E1,8.834776282E-1,8.367405534E-1,1.661031127E0
3.407699119E1,8.173666000E-1,5.579823852E-1,1.646117926E0
3.409689781E1,9.852739573E-1,8.585777879E-1,1.525147438E0
3.411679150E1,1.149919033E0,1.143194795E0,1.363098860E0
3.413668932E1,1.111038089E0,1.238599658E0,1.187734842E0
3.415658973E1,9.746216536E-1,1.363897681E0,1.059840322E0
3.417647635E1,8.178992271E-1,1.536598682E0,9.222920537E-1
3.419637317E1,6.835467219E-1,1.651710391E0,6.995252371E-1
3.421626353E1,6.361438632E-1,1.599979997E0,4.266258180E-1
3.423615583E1,5.918700695E-1,1.282873392E0,2.150439173E-1
3.425604291E1,5.098471642E-1,8.196967840E-1,4.287562892E-2
3.427593041E1,3.957340717E-1,2.440715134E-1,-9.034507722E-2
3.429579228E1,2.646438181E-1,-3.784905970E-1,-2.145778835E-1
3.431571452E1,1.495320797E-1,-9.455940127E-1,-3.632444739E-1
3.433559791E1,2.902759984E-2,-1.387466073E0,-4.810858667E-1
3.435549244E1,-1.410102248E-1,-1.834664106E0,-6.169696450E-1
3.437537041E1,-2.747635543E-1,-2.217349052E0,-7.838117480E-1
3.439527932E1,-3.435376585E-1,-2.347374201E0,-8.717600703E-1
3.441516583E1,-3.648423254E-1,-2.037724257E0,-8.584446907E-1
3.443506119E1,-3.701684773E-1,-1.384270310E0,-7.609092593E-1
3.445493442E1,-4.187031686E-1,-8.858743906E-1,-6.633738875E-1
3.447481025E1,-4.527906179E-1,-8.480586410E-1,-6.564498544E-1
3.449470030E1,-4.187031686E-1,-1.134806037E0,-6.761566401E-1
3.451460421E1,-4.181705415E-1,-1.508969188E0,-6.585803032E-1
3.453450536E1,-4.730300307E-1,-1.772281408E0,-6.345459819E-1
3.455438098E1,-5.226299763E-1,-1.737661362E0,-6.297524571E-1
3.457430348E1,-5.423367620E-1,-1.323485494E0,-6.095130444E-1
3.459419895E1,-5.641740561E-1,-9.743553400E-1,-5.828821659E-1
3.461405369E1,-5.322170258E-1,-1.016498566E0,-5.706320405E-1
3.463394650E1,-4.613124728E-1,-1.151849747E0,-5.594470501E-1
3.465388374E1,-4.203009903E-1,-1.114034057E0,-5.082492828E-1
3.467372577E1,-3.973319232E-1,-9.397352338E-1,-4.005942047E-1
3.469364911E1,-3.675054014E-1,-7.345447540E-1,-3.003957272E-1
3.471354166E1,-3.440702558E-1,-6.599118710E-1,-2.614481449E-1
3.473341025E1,-3.200359344E-1,-6.870753169E-1,-2.055234015E-1
3.475329921E1,-2.763614058E-1,-6.694989800E-1,-1.458037645E-1
3.477322280E1,-2.256962508E-1,-5.554524660E-1,-1.175750941E-1
3.479309338E1,-1.782933772E-1,-3.678382933E-1,-1.037270650E-1
3.481297041E1,-1.420754492E-1,-1.807567328E-1,-7.809489965E-2
3.483290161E1,-1.164432839E-1,-5.119776353E-2,-3.708342463E-2
3.485276822E1,-9.194292873E-2,2.177070081E-2,1.624480449E-2
3.487264020E1,-8.555153012E-2,8.894696087E-2,6.204982474E-2
3.489253489E1,-8.821461350E-2,1.768952608E-1,1.254977584E-1
3.491244817E1,-7.543181628E-2,3.122464418E-1,2.081198990E-1
3.493235989E1,-4.880098626E-2,5.025902390E-1,2.934051156E-1
3.495223963E1,-1.304910425E-2,6.651048660E-1,3.952014446E-1
3.497212317E1,4.880098626E-2,6.208977103E-1,5.449332595E-1
3.499200458E1,1.474016160E-1,4.033904374E-1,7.341452837E-1
3.501190874E1,2.555893362E-1,3.868793249E-1,8.786175251E-1
3.503180015E1,3.131119311E-1,7.083134055E-1,9.852073789E-1
3.505168124E1,3.291569948E-1,1.195990324E0,1.069959998E0
3.507157520E1,3.643096983E-1,1.569088221E0,1.066764355E0
3.509147317E1,4.341490269E-1,1.751908898E0,1.068894744E0
3.511137932E1,5.162385702E-1,1.802574039E0,1.192528367E0
3.513123583E1,6.436004639E-1,1.819085121E0,1.360968351E0
3.515119432E1,8.109751940E-1,1.875009894E0,1.494788289E0
3.517102958E1,9.980567694E-1,1.876607656E0,1.611497879E0
3.519090744E1,1.190997124E0,1.743919611E0,1.736196637E0
3.521082182E1,1.403111577E0,1.465694070E0,1.836927772E0
3.523071505E1,1.615758777E0,1.010506630E0,1.874810100E0
3.525056958E1,1.784731388E0,4.236964285E-1,1.931267500E0
3.527049734E1,1.899909616E0,-1.178414002E-1,2.020281076E0
3.529037197E1,1.995847225E0,-5.410717726E-1,2.110359669E0
3.531029619E1,2.262288570E0,-9.674313068E-1,2.210558176E0
3.533012958E1,2.514948606E0,-1.474881649E0,2.248973131E0
3.535004421E1,2.752695322E0,-2.049441814E0,2.232462168E0
3.536994796E1,3.190239668E0,-2.587783813E0,2.235657692E0
3.538985140E1,3.802149534E0,-3.099961281E0,2.349704266E0
3.540971682E1,4.496149063E0,-3.677783489E0,2.539981604E0
3.542959770E1,5.251399040E0,-4.560928345E0,2.657223701E0
3.544950541E1,5.993333817E0,-5.826292038E0,2.625799417E0
3.546940515E1,6.387736320E0,-6.858702660E0,2.687649488E0
3.548929952E1,6.613698959E0,-6.992988586E0,2.929590464E0
3.550918234E1,6.726214409E0,-6.098126411E0,3.426921129E0
3.552905286E1,6.202785492E0,-4.074316502E0,4.080907822E0
3.554895031E1,5.022706985E0,-1.354976416E0,4.797210217E0
3.556886921E1,3.017072916E0,1.550579816E-1,5.604723454E0
3.558873114E1,-6.473287940E-1,-1.850176603E-1,6.041801929E0
3.560864067E1,-5.115981102E0,2.296908647E-1,5.200734138E0
3.562852468E1,-8.389176369E0,2.630326748E0,2.449902773E0
3.564843817E1,-1.050193310E1,4.082705498E0,-1.391993284E0
3.566833520E1,-1.183979893E1,2.688381910E0,-4.872442245E0
3.568822692E1,-1.215530777E1,-5.659050494E-2,-6.963961124E0
3.570810432E1,-1.193147564E1,-1.366693974E0,-7.522009850E0
3.572799270E1,-1.103335094E1,-1.004248381E0,-7.120084286E0
3.574789432E1,-9.348018646E0,-1.400248766E0,-5.777491093E0
3.576777301E1,-8.401958466E0,-2.232795000E0,-3.747822762E0
3.578763718E1,-7.843909740E0,-1.610765457E0,-1.776276112E0
3.580754338E1,-6.450119019E0,1.918085217E-1,-6.850779802E-2
3.582743020E1,-4.726372242E0,2.251303434E0,6.494592428E-1
3.584734109E1,-3.336309910E0,3.195832253E0,9.137701988E-1
3.586723650E1,-2.490448236E0,3.034848928E0,1.061438084E0
3.588711312E1,-2.005966902E0,2.737981796E0,1.236269474E0
3.590699286E1,-1.535866261E0,2.792841196E0,1.499581814E0
3.592687645E1,-9.473916292E-1,2.630326748E0,1.721283436E0
3.594679754E1,-4.250945449E-1,2.084527969E0,1.869483948E0
3.596666301E1,4.021254554E-2,1.717821360E0,2.054967642E0
3.598657390E1,5.460650921E-1,1.560566425E0,2.291582584E0
3.600646692E1,9.660332203E-1,1.203446984E0,2.538916349E0
3.602633848E1,1.002317667E0,7.957290411E-1,2.736650229E0
3.604625718E1,8.067142963E-1,7.951964736E-1,2.748900414E0
3.606615161E1,8.994561434E-1,1.111770391E0,2.483990192E0
3.608600843E1,1.076950550E0,1.256242633E0,2.254299402E0
3.610593572E1,9.948610663E-1,1.440128446E0,2.186590433E0
3.612580557E1,8.621063828E-1,1.774811387E0,2.035726786E0
3.614570254E1,9.500547051E-1,1.844118118E0,1.747381568E0
3.616558848E1,1.080146313E0,1.451313376E0,1.580073476E0
3.618548421E1,1.023089767E0,1.042463660E0,1.485733747E0
3.620536197E1,9.170324802E-1,8.441971540E-1,1.216030121E0
3.622527348E1,9.015865922E-1,6.965958476E-1,8.812806010E-1
3.624517807E1,1.036405206E0,7.637054920E-1,7.437989712E-1
3.626502583E1,1.008709073E0,1.406507015E0,7.496577501E-1
3.628492385E1,7.693645358E-1,1.780137539E0,7.101775408E-1
3.630484286E1,5.849460959E-1,1.699645877E0,6.755574942E-1
3.632471541E1,4.320185781E-1,1.479542136E0,5.161719918E-1
3.634459614E1,3.088510036E-1,1.186403275E0,2.320876420E-1
3.636449656E1,2.123808414E-1,7.599771619E-1,8.255556226E-3
3.638436254E1,7.276873291E-2,4.641752839E-1,-8.182321489E-2
3.640427682E1,-7.063826174E-2,3.501287699E-1,-1.394123733E-1
3.642419926E1,-1.660431921E-1,1.768952608E-1,-1.687062830E-1
3.644404088E1,-2.481327206E-1,-1.482671201E-1,-1.553908736E-1
3.646394614E1,-3.259612918E-1,-4.611127377E-1,-1.623148769E-1
3.648382999E1,-3.808208108E-1,-6.311505437E-1,-1.932732165E-1
3.650372364E1,-3.983971477E-1,-7.356100082E-1,-2.065886259E-1
3.652361744E1,-4.117125571E-1,-8.395367861E-1,-2.454696298E-1
3.654352275E1,-4.309533238E-1,-9.711596370E-1,-2.993304729E-1
3.656337801E1,-4.485296905E-1,-1.105512142E0,-3.264939189E-1
3.658328067E1,-4.602472484E-1,-1.204645395E0,-3.089175820E-1
3.660319911E1,-4.671712518E-1,-1.240330696E0,-2.726330757E-1
3.662306296E1,-4.623776972E-1,-1.209971547E0,-2.529262602E-1
3.664298801E1,-4.618450999E-1,-1.133208156E0,-2.406760901E-1
3.666285989E1,-4.916716218E-1,-1.024487853E0,-1.591191888E-1
3.668273666E1,-4.996608794E-1,-9.589094520E-1,-6.318163127E-2
3.670266395E1,-4.655734003E-1,-9.125717878E-1,-3.442034125E-2
3.672254307E1,-4.309533238E-1,-8.560478687E-1,-6.690994650E-2
3.674244239E1,-4.042559266E-1,-8.224930763E-1,-8.981245756E-2
3.676236062E1,-3.675054014E-1,-7.888716459E-1,-8.075797558E-2
3.678225390E1,-2.950029671E-1,-6.790860295E-1,-8.448629081E-2
3.680210593E1,-2.332194597E-1,-4.952002168E-1,-1.143793985E-1
3.682200676E1,-2.033263594E-1,-3.230319023E-1,-1.340862066E-1
3.684190182E1,-1.798912287E-1,-2.063223273E-1,-1.154446304E-1
3.686178624E1,-1.489994675E-1,-1.717022508E-1,-5.892070010E-2
3.688168291E1,-1.212368309E-1,-1.754305661E-1,-2.003969625E-2
3.690154036E1,-1.260303855E-1,-1.621151567E-1,-2.217016183E-2
3.692142994E1,-1.345522404E-1,-1.519954354E-1,-2.749632671E-2
3.694136583E1,-1.233673021E-1,-1.519954354E-1,2.663082560E-4
3.696123676E1,-1.015300229E-1,-1.167761683E-1,2.476666868E-2
3.698117020E1,-9.141030908E-2,-2.403431945E-2,2.849498391E-2
3.700101676E1,-8.395367861E-2,1.001319066E-1,2.423405088E-2
3.702091291E1,-7.010564953E-2,1.848845035E-1,2.742975019E-2
3.704081577E1,-4.880098626E-2,1.880802065E-1,5.352795869E-2
3.706068739E1,-3.808208182E-2,1.768952608E-1,1.169759035E-1
3.708057046E1,-4.234301299E-2,1.960694492E-1,2.038589716E-1
3.710047551E1,-3.435376659E-2,2.451367527E-1,2.992638946E-1
3.712037525E1,-1.784265228E-2,3.069202602E-1,4.042559266E-1
3.714026775E1,7.190322969E-3,3.703682125E-1,5.113784075E-1
3.716016192E1,4.181039706E-2,4.593817294E-1,6.286206245E-1
3.718002734E1,1.036604866E-1,6.054518223E-1,7.698971629E-1
3.719993817E1,1.878804713E-1,8.069140315E-1,9.004548192E-1
3.721983411E1,3.419398069E-1,9.886693954E-1,9.979901910E-1
3.723972083E1,5.316844583E-1,1.062237024E0,1.062503338E0
3.725959572E1,6.798183918E-1,1.056378245E0,1.167495370E0
3.727949687E1,8.312146664E-1,1.148054838E0,1.334337473E0
3.729936958E1,9.969915152E-1,1.345788717E0,1.564028382E0
3.731925202E1,1.124353409E0,1.466759324E0,1.794318438E0
3.733919057E1,1.186736107E0,1.285003901E0,2.007498264E0
3.735904614E1,1.318359017E0,9.209605455E-1,2.100772619E0
3.737893656E1,1.419622779E0,6.299521923E-1,2.144513845E0
3.739886083E1,1.441526532E0,5.985277891E-1,2.367280722E0
3.741874182E1,1.627542853E0,5.547866821E-1,2.642843246E0
3.743861661E1,1.879070997E0,1.219691783E-1,2.849631548E0
3.745851530E1,2.285790443E0,-8.352758288E-1,3.001560450E0
3.747842156E1,2.906155348E0,-2.156031609E0,3.102291346E0
3.749832510E1,3.664135218E0,-3.577585220E0,3.206750870E0
3.751822541E1,4.475842953E0,-4.894612789E0,3.334712029E0
3.753806395E1,5.221506119E0,-6.029352188E0,3.531380653E0
3.755796343E1,5.904852867E0,-6.687067032E0,3.851150274E0
3.757785723E1,6.511902809E0,-6.740395069E0,4.137364864E0
3.759775588E1,7.017755032E0,-6.456843376E0,4.159202576E0
3.761763942E1,7.261293888E0,-5.917968750E0,4.013731480E0
3.763754421E1,6.719290257E0,-4.712324619E0,4.487560272E0
3.765742213E1,4.866583824E0,-2.617610455E0,5.298801899E0
3.767729499E1,2.087523937E0,-1.214765072E0,5.146872997E0
3.769722067E1,-1.093994260E0,-5.133091807E-1,4.052612305E0
3.771707775E1,-4.570714951E0,1.007310987E0,1.728207469E0
3.773700265E1,-8.252693176E0,1.785463691E0,-1.402112961E0
3.775690067E1,-1.113195133E1,6.928675175E-1,-4.403939724E0
3.777677395E1,-1.266542053E1,-6.449986100E-1,-6.100456238E0
3.779665458E1,-1.298199463E1,-1.018629074E0,-6.484805584E0
3.781655041E1,-1.237281513E1,-1.178014517E0,-6.161773682E0
3.783643968E1,-1.109573364E1,-2.621871471E0,-4.563324928E0
3.785633843E1,-1.053928280E1,-3.515734911E0,-1.697914839E0
3.787623833E1,-1.017044544E1,-1.472218633E0,1.001718521E0
3.789613156E1,-8.919462204E0,2.042384624E0,2.243114471E0
3.791598989E1,-7.160562992E0,4.020389080E0,2.194047213E0
3.793591062E1,-5.450198174E0,3.364205599E0,1.798046708E0
3.795576812E1,-3.859206200E0,1.593588591E0,1.445188284E0
3.797569265E1,-2.630060434E0,2.264951766E-1,1.209638715E0
3.799558952E1,-1.665358663E0,-7.150376588E-2,1.040133476E0
3.801547192E1,-8.221601844E-1,1.992651522E-1,7.688319087E-1
3.803536744E1,-9.194292873E-2,4.012599587E-1,2.811549306E-1
3.805523343E1,5.210320950E-1,3.639768064E-1,-1.458037645E-1
3.807514958E1,9.404675961E-1,4.599143565E-1,-2.124474049E-1
3.809504317E1,1.105711937E0,1.100585461E0,2.663082560E-4
3.811493932E1,1.053448915E0,1.827607036E0,2.683055699E-1
3.813479062E1,1.200584173E0,2.217748642E0,5.534551144E-1
3.815470301E1,1.624347210E0,2.621738195E0,9.537830353E-1
3.817461057E1,1.500647068E0,3.145167112E0,1.271954775E0
3.819447942E1,1.237334728E0,3.440436363E0,1.492657781E0
3.821437853E1,1.149386406E0,3.226191282E0,1.816688299E0
3.823429421E1,1.127016544E0,2.703294992E0,1.901440978E0
3.825425348E1,1.128614426E0,2.201770067E0,1.588595271E0
3.827404234E1,1.088135481E0,1.868618488E0,1.323685169E0
3.829392947E1,1.025220156E0,1.934196830E0,1.254911065E0
3.831381906E1,9.778173566E-1,2.155898571E0,1.101917028E0
3.833370843E1,9.399349689E-1,2.038656235E0,8.605085611E-1
3.835361546E1,8.951951861E-1,1.770017862E0,6.387403607E-1
3.837351130E1,8.067142963E-1,1.633601427E0,4.612458944E-1
3.839339291E1,6.633073092E-1,1.453976512E0,3.093836308E-1
3.841327598E1,5.146406889E-1,1.102183342E0,1.889457107E-1
3.843317406E1,3.525921404E-1,6.794854999E-1,1.318891644E-1
3.845305083E1,1.873478591E-1,2.904091477E-1,1.057909578E-1
3.847296963E1,5.359453708E-2,-4.480636492E-2,7.323476672E-2
3.849284635E1,-3.115806542E-2,-3.444031477E-1,4.340824485E-2
3.851273249E1,-1.164432839E-1,-5.256259441E-1,4.527240526E-3
3.853263192E1,-2.246310115E-1,-4.568518102E-1,-7.489919662E-2
3.855250260E1,-2.960681915E-1,-3.320863843E-1,-1.750976741E-1
3.857242161E1,-3.221664131E-1,-3.800884485E-1,-2.246975899E-1
3.859233780E1,-3.157750070E-1,-5.437349081E-1,-2.523936629E-1
3.861221984E1,-3.083183765E-1,-6.732272506E-1,-2.838846147E-1
3.863207187E1,-3.221664131E-1,-7.382730842E-1,-2.731657028E-1
3.865197567E1,-3.382114768E-1,-8.203625679E-1,-2.364151478E-1
3.867185728E1,-3.173728585E-1,-9.583768249E-1,-2.012624592E-1
3.869178786E1,-2.747635543E-1,-1.063368917E0,-1.766955256E-1
3.871166327E1,-2.267614752E-1,-1.092196703E0,-2.076538652E-1
3.873156004E1,-1.713693589E-1,-1.101251245E0,-3.126458824E-1
3.875143447E1,-1.452711523E-1,-1.124153733E0,-3.270265460E-1
3.877132228E1,-1.260303855E-1,-1.160371661E0,-2.945369184E-1
3.879127218E1,-1.041931063E-1,-1.219026089E0,-2.780258060E-1
3.881112796E1,-1.105845049E-1,-1.240330696E0,-2.438717782E-1
3.883098978E1,-1.329544038E-1,-1.157175899E0,-2.071212530E-1
3.885090932E1,-1.585865617E-1,-9.743553400E-1,-1.766955256E-1
3.887078822E1,-1.708367467E-1,-7.222945690E-1,-1.708367467E-1
3.889069432E1,-1.836195439E-1,-5.053198934E-1,-1.559234858E-1
3.891056031E1,-1.766955256E-1,-3.683708906E-1,-1.399449855E-1
3.893045103E1,-1.687062830E-1,-2.889444530E-1,-9.194292873E-2
3.895037343E1,-1.521951705E-1,-2.201703489E-1,-2.057231218E-2
3.897028478E1,-1.484668553E-1,-1.082543060E-1,4.287562892E-2
3.899018275E1,-1.495320797E-1,3.455349803E-2,1.084540337E-1
3.901000859E1,-1.484668553E-1,1.555905938E-1,1.840855777E-1
3.902990010E1,-1.286934614E-1,2.909417748E-1,2.565880120E-1
3.904982484E1,-9.141030908E-2,5.212318301E-1,3.226990402E-1
3.906969682E1,-4.340824485E-2,8.244903684E-1,4.111799598E-1
3.908958744E1,1.571218669E-2,1.111237764E0,5.401397347E-1
3.910946244E1,9.300816059E-2,1.319091320E0,7.352105379E-1
3.912935510E1,1.793586165E-1,1.489661813E0,9.436632991E-1
3.914924218E1,2.662416697E-1,1.667688847E0,1.114233732E0
3.916915921E1,3.531247377E-1,1.867553234E0,1.315695882E0
3.918901963E1,4.575841725E-1,2.043982506E0,1.572017670E0
3.920894984E1,5.897396207E-1,2.192715645E0,1.825742841E0
3.922881348E1,7.555165291E-1,2.283327103E0,2.041119576E0
3.924872744E1,9.713593721E-1,2.195378780E0,2.274006128E0
3.926858989E1,1.190464497E0,1.810030580E0,2.594375134E0
3.928853114E1,1.411633492E0,1.500846744E0,2.822468042E0
3.930840202E1,1.521951675E0,1.631470919E0,2.882187605E0
3.932830598E1,1.629673362E0,1.710897446E0,2.974929571E0
3.934821510E1,1.941453815E0,1.340995193E0,3.320797443E0
3.936806072E1,2.280464172E0,7.541183829E-1,3.690166950E0
3.938794994E1,2.687649488E0,8.362079412E-2,3.937500715E0
3.940787077E1,3.184913635E0,-6.971949935E-1,4.145354271E0
3.942772062E1,3.761137962E0,-1.533469558E0,4.266923904E0
3.944763900E1,4.388959885E0,-2.575533628E0,4.240226746E0
3.946753265E1,4.976369381E0,-4.174515247E0,4.189628124E0
3.948742369E1,5.443274021E0,-6.199922562E0,4.075581551E0
3.950730906E1,5.769968033E0,-8.039313316E0,3.761604071E0
3.952721869E1,5.872829437E0,-9.198020935E0,3.222196817E0
3.954709077E1,5.474165916E0,-9.836029053E0,2.832587719E0
3.956699780E1,4.520649433E0,-1.073042488E1,3.046832800E0
3.958690208E1,2.897100925E0,-1.112429523E1,3.356016636E0
3.960677458E1,7.432663441E-1,-8.780182838E0,4.417721272E0
3.962665327E1,-2.080533266E0,-3.109614849E0,7.221880436E0
3.964653171E1,-6.339800835E0,4.799074650E0,8.194038391E0
3.966644973E1,-1.052223873E1,8.658546448E0,5.425631046E0
3.968632666E1,-1.233706284E1,6.979606628E0,-1.874144375E-1
3.970623801E1,-1.223526669E1,3.127590656E0,-5.469971657E0
3.972613187E1,-1.167348957E1,5.792204756E-3,-7.445246696E0
3.974599385E1,-1.073541832E1,-5.570502877E-1,-7.072681427E0
3.976590015E1,-9.123121262E0,2.709686570E-2,-5.952322483E0
3.978577223E1,-8.002163887E0,1.193061024E-1,-4.432701111E0
3.980567984E1,-7.258098125E0,-2.750964165E-1,-2.589581490E0
3.982557124E1,-6.332810402E0,-2.532591522E-1,-7.795508504E-1
3.984546307E1,-5.158124447E0,6.944653392E-1,1.025952548E-1
3.986534916E1,-3.857075691E0,1.565359950E0,5.604457259E-1
3.988522864E1,-2.731923342E0,1.894250631E0,7.250908017E-1
3.990514390E1,-1.936127543E0,1.444921970E0,7.746906877E-1
3.992502281E1,-1.201116800E0,5.723630190E-1,1.135538459E0
3.994490515E1,-3.376788795E-1,4.284899831E-1,1.517158151E0
3.996480208E1,5.519238710E-1,1.092063546E0,1.910495400E0
3.998467843E1,1.017230988E0,1.867553234E0,2.422206640E0
4.000456697E1,1.047590137E0,2.169813156E0,2.673734903E0
4.002446353E1,1.222954035E0,2.132463455E0,2.662017345E0
4.004439614E1,1.495853424E0,2.230531454E0,2.806489468E0
4.006428010E1,1.670684814E0,2.297174931E0,2.953558207E0
4.008420208E1,1.730404496E0,1.790257215E0,2.868872166E0
4.010405437E1,1.369024158E0,1.112303019E0,2.713747740E0
4.012394072E1,8.029859662E-1,9.812127948E-1,2.358226299E0
4.014382650E1,5.476629138E-1,1.005713105E0,1.778872609E0
4.016372124E1,4.975304008E-1,4.844147265E-1,1.529940963E0
4.018362166E1,4.495949149E-1,-3.422726989E-1,1.646650553E0
4.020347708E1,5.204994678E-1,-3.251623809E-1,1.614693522E0
4.022336583E1,8.748891950E-1,1.040865779E0,1.406307340E0
4.024327353E1,1.116896868E0,1.645851612E0,1.267693877E0
4.026322713E1,1.060905457E0,1.005713105E0,1.251182795E0
4.028304770E1,9.031844735E-1,6.773550510E-1,1.125951290E0
4.030296682E1,7.677667141E-1,1.046191931E0,7.576469779E-1
4.032286369E1,5.439345837E-1,1.558968544E0,4.319519997E-1
4.034274869E1,2.966008186E-1,1.726875901E0,2.336854935E-1
4.036261447E1,1.084540337E-1,1.388930678E0,5.672365800E-2
4.038250749E1,1.784265228E-2,7.957290411E-1,-8.182321489E-2
4.040238536E1,-3.222329915E-2,3.416069150E-1,-1.644453406E-1
4.042229796E1,-5.892070010E-2,1.182408631E-1,-1.954036802E-1
4.044219838E1,-7.702966034E-2,-4.906729609E-2,-1.633801162E-1
4.046206593E1,-1.057909578E-1,-2.596505582E-1,-1.149120107E-1
