"Time (s)","Gyroscope x (rad/s)","Gyroscope y (rad/s)","Gyroscope z (rad/s)"
4.101922500E-2,2.529262602E-1,1.827540398E-1,-1.884796619E-1
6.085995400E-2,3.254286945E-1,2.496639825E-2,-2.001972347E-1
8.074500600E-2,4.095821083E-1,-1.887459755E-1,-2.412087023E-1
1.006500590E-1,5.290213227E-1,-4.424711764E-1,-3.275591433E-1
1.205474020E-1,7.342118621E-1,-7.190988660E-1,-4.027246535E-1
1.404154230E-1,1.016165733E0,-9.509202242E-1,-4.341490269E-1
1.603273500E-1,1.315695882E0,-1.053249121E0,-4.901403487E-1
1.802090170E-1,1.589660525E0,-1.014900804E0,-5.850126743E-1
2.001009440E-1,1.826341987E0,-9.360069633E-1,-6.665695906E-1
2.199767770E-1,1.995847225E0,-8.123733401E-1,-7.139724493E-1
2.398769860E-1,2.038456440E0,-5.272237659E-1,-7.545178533E-1
2.597455270E-1,1.898311853E0,-6.990591437E-2,-7.657027841E-1
2.796859440E-1,1.658967257E0,3.954011798E-1,-6.830806732E-1
2.995930270E-1,1.387665749E0,6.944653392E-1,-5.524564981E-1
3.194343810E-1,1.080146313E0,6.870087385E-1,-3.883440197E-1
3.393439650E-1,7.107767463E-1,3.906076252E-1,-2.028603107E-1
3.592613090E-1,3.136445582E-1,-3.521926701E-2,-7.756228000E-2
3.791116730E-1,-3.009283356E-2,-4.525908828E-1,3.541899845E-2
3.990236520E-1,-2.806223333E-1,-7.563820481E-1,1.414762586E-1
4.189143290E-1,-4.368121028E-1,-8.310149312E-1,2.097177505E-1
4.387799020E-1,-5.039218068E-1,-5.985943675E-1,2.225005478E-1
4.586754230E-1,-4.948673248E-1,-2.313552946E-1,2.288919389E-1
4.785646940E-1,-4.282902479E-1,2.336854860E-2,2.235657871E-1
4.984822460E-1,-3.403419554E-1,7.722939551E-2,1.990654171E-1
5.183650590E-1,-2.950029671E-1,4.101147130E-2,1.707701683E-1
5.382404230E-1,-2.635785937E-1,3.888100386E-2,1.446719617E-1
5.581488090E-1,-2.203700840E-1,-3.308879957E-2,1.313565522E-1
5.780192770E-1,-1.734998226E-1,-1.903438270E-1,1.953371018E-1
5.979134960E-1,-9.673647583E-2,-2.745638192E-1,3.551886380E-1
6.177956310E-1,4.394086078E-2,-1.007976755E-1,5.599130988E-1
6.377326630E-1,2.646438181E-1,3.703682125E-1,7.576469779E-1
6.576270900E-1,4.964651763E-1,9.918650985E-1,1.028415918E0
6.775160480E-1,6.515897512E-1,1.651710391E0,1.380142570E0
6.973612040E-1,6.478614211E-1,2.334990740E0,1.722881317E0
7.172745900E-1,6.164370179E-1,3.146764994E0,1.978204250E0
7.371845380E-1,5.529890656E-1,3.840764284E0,2.180199146E0
7.570434440E-1,4.719648063E-1,4.319919586E0,2.389117956E0
7.769353190E-1,3.765598834E-1,4.745746136E0,2.543177366E0
7.968343810E-1,1.777607650E-1,5.251598835E0,2.622603655E0
8.167284440E-1,-1.169759035E-1,5.324634075E0,2.921601295E0
8.365897460E-1,-5.076501369E-1,4.679169178E0,3.378919125E0
8.565308920E-1,-8.434648514E-1,3.568397522E0,3.645959854E0
8.763811520E-1,-1.096657395E0,2.037058353E0,3.849019766E0
8.962602670E-1,-1.283206344E0,1.081211492E-1,4.210932732E0
9.161856840E-1,-1.403644204E0,-1.772281408E0,4.690087795E0
9.360736000E-1,-1.409502983E0,-3.311609745E0,5.180428028E0
9.559330790E-1,-1.087070346E0,-4.483632565E0,5.667638779E0
9.758243290E-1,-2.374803871E-1,-5.050735950E0,6.034877777E0
9.957668810E-1,7.033200860E-1,-4.875438213E0,5.925092220E0
1.015637246E0,1.527344465E0,-4.443153381E0,5.163916588E0
1.035538913E0,2.187189817E0,-4.503938198E0,3.979044914E0
1.055395527E0,2.291116476E0,-4.440490246E0,2.371008873E0
1.075345579E0,1.717089057E0,-2.990708351E0,8.818132281E-1
1.095177819E0,-4.069190025E-1,-5.386084318E-2,-5.625762045E-2
1.115078236E0,-4.333567619E0,3.114275217E0,-1.728273988E0
1.134967663E0,-8.737707138E0,3.969723940E0,-3.377387762E0
1.154869225E0,-1.124925995E1,3.367933989E0,-4.623510838E0
1.174753861E0,-1.191869259E1,2.959683418E0,-5.297270775E0
1.194649850E0,-1.193467140E1,2.757688522E0,-5.343608379E0
1.214546100E0,-1.171296978E1,2.671338081E0,-5.601594448E0
1.234413236E0,-1.102589417E1,2.259359360E0,-5.300466537E0
1.254301048E0,-9.107608795E0,3.025261879E0,-5.483286858E0
1.274191048E0,-6.190002441E0,3.720792294E0,-6.406444550E0
1.294098079E0,-3.310744286E0,2.852560997E0,-6.587134838E0
1.313963965E0,-1.364763260E0,9.124386907E-1,-6.225221634E0
1.333883600E0,-7.170350105E-2,-8.022536039E-1,-5.068578243E0
1.353746934E0,1.007643819E0,-9.994548559E-1,-4.070255280E0
1.373673600E0,2.551765680E0,-5.991935614E-4,-3.250025988E0
1.393572194E0,3.973785162E0,1.202914357E0,-2.109361172E0
1.413426673E0,4.677371502E0,2.081864834E0,-9.527843595E-1
1.433307194E0,4.866051197E0,2.815810442E0,-1.985993832E-1
1.453198861E0,5.066448212E0,3.866862535E0,-3.814865649E-2
1.473101152E0,4.844147205E0,4.751605034E0,-1.655105799E-1
1.492967194E0,4.170986652E0,4.932827950E0,-4.032572806E-1
1.512890371E0,3.770192623E0,4.102944851E0,-4.394752085E-1
1.532790892E0,3.673722506E0,2.736916542E0,-1.809564531E-1
1.552650840E0,3.547891855E0,1.562696815E0,-9.247554094E-2
1.572578444E0,3.293700457E0,5.707651973E-1,-3.371462524E-1
1.592440319E0,2.924330950E0,-5.682352185E-1,-3.659075499E-1
1.612338027E0,2.447772264E0,-1.286734939E0,-2.422739416E-1
1.632235684E0,1.950508237E0,-9.237567782E-1,-3.142437339E-1
1.652129017E0,1.424416304E0,5.006595328E-2,-4.341490269E-1
1.671983236E0,8.711608648E-1,8.399362564E-1,-3.931375742E-1
1.691905788E0,3.488638103E-1,1.104846358E0,-1.975341439E-1
1.711791517E0,-4.826837033E-2,1.124020576E0,3.595161438E-2
1.731703861E0,-2.412087023E-1,1.209838390E0,1.446719617E-1
1.751578548E0,-3.109814525E-1,1.217827678E0,2.070546746E-1
1.771469642E0,-3.323526978E-1,9.438630342E-1,2.800897062E-1
1.791358913E0,-3.109814525E-1,4.732297659E-1,2.971334457E-1
1.811249381E0,-2.332194597E-1,5.858781561E-2,2.966008186E-1
1.831106829E0,-1.185737476E-1,-1.695717871E-1,2.528596818E-1
1.851032559E0,-4.181039706E-2,-2.404097766E-1,2.145113051E-1
1.870914902E0,-3.701684624E-2,-1.567889899E-1,1.868152469E-1
1.890793913E0,-7.276873291E-2,7.922670804E-3,1.079214215E-1
1.910706465E0,-1.100518852E-1,-2.243646979E-2,1.784265228E-2
1.930575006E0,-1.772281379E-1,-3.699687421E-1,-1.045259926E-2
1.950482663E0,-2.497305721E-1,-8.235582709E-1,-6.191667169E-3
1.970376413E0,-2.848832607E-1,-1.118827581E0,-1.205044892E-2
1.990255579E0,-2.971334457E-1,-1.164632559E0,-7.436657697E-2
2.010128340E0,-2.955355942E-1,-1.051118731E0,-1.415428370E-1
2.030040059E0,-2.997965217E-1,-9.099087119E-1,-1.681736708E-1
2.049932559E0,-3.029922247E-1,-7.883390188E-1,-1.623148769E-1
2.069806361E0,-2.896768153E-1,-6.519225836E-1,-1.356840581E-1
2.089691465E0,-2.673069239E-1,-5.378761292E-1,-1.244991124E-1
2.109627454E0,-2.444044054E-1,-5.538545847E-1,-1.260969639E-1
2.129499225E0,-2.337520719E-1,-6.572487950E-1,-1.133141592E-1
2.149381465E0,-2.299571782E-1,-6.092467308E-1,-8.448629081E-2
2.169274798E0,-2.113156021E-1,-3.689035177E-1,-5.093145370E-2
2.189161986E0,-1.756303012E-1,-1.375482082E-1,-3.122464381E-2
2.209055006E0,-1.479342431E-1,-7.523208112E-2,2.929390874E-3
2.228919277E0,-1.121823564E-1,-7.097115368E-2,7.909355313E-2
2.248839538E0,-5.892070010E-2,3.402087837E-2,1.921414137E-1
2.268711465E0,-6.125089712E-3,2.227668613E-1,3.083183765E-1
2.288602402E0,4.127778113E-2,3.650420308E-1,4.569849670E-1
2.308523913E0,1.292260885E-1,3.618463576E-1,7.619079351E-1
2.328418756E0,3.035248220E-1,2.035260797E-1,1.262367725E0
2.348283131E0,5.114449859E-1,1.145125479E-1,1.663694263E0
2.368202559E0,7.054505944E-1,2.994636297E-1,1.723946452E0
2.388066256E0,9.505873322E-1,5.047207475E-1,1.755370855E0
2.407944746E0,1.277347565E0,6.427350044E-1,1.882266760E0
2.427841777E0,1.603508592E0,8.980579972E-1,1.957432270E0
2.447743704E0,1.902040124E0,1.265297055E0,2.004302502E0
2.467647767E0,2.158361912E0,1.624546885E0,2.062424183E0
2.487578340E0,2.337986708E0,2.022145271E0,2.064022064E0
2.507403913E0,2.444576740E0,2.312088251E0,2.021346331E0
2.527288548E0,2.518144369E0,2.228933573E0,1.975541234E0
2.547195006E0,2.490448236E0,1.835596204E0,1.831601620E0
2.567090892E0,2.291116476E0,1.297786713E0,1.682402372E0
2.586956986E0,1.923877478E0,5.771565437E-1,1.700511336E0
2.606844121E0,1.400981188E0,-2.244312763E-1,1.871614456E0
2.626771309E0,7.992576361E-1,-1.116697073E0,2.101305246E0
2.646656829E0,2.390782386E-1,-2.408691645E0,2.539981604E0
2.666520684E0,-2.033263594E-1,-3.771058083E0,3.310145140E0
2.686437559E0,-4.400078058E-1,-4.544950008E0,4.221585274E0
2.706300840E0,-4.597146213E-1,-4.701139450E0,5.084490299E0
2.726205840E0,-3.499290347E-1,-4.302942276E0,5.821631432E0
2.746096986E0,-2.103835158E-2,-3.062145472E0,6.240601063E0
2.765989381E0,5.183690190E-1,-8.054493070E-1,6.231546402E0
2.785860111E0,1.076417923E0,1.843585491E0,5.904786587E0
2.805791361E0,1.392459273E0,4.063530922E0,5.357922554E0
2.825679121E0,1.540127277E0,5.486615658E0,4.545682430E0
2.845591673E0,1.596584558E0,5.836278439E0,3.546293974E0
2.865427663E0,1.249651432E0,5.151932716E0,2.318279982E0
2.885319694E0,-2.214353085E-1,5.091680527E0,7.661688328E-1
2.905214277E0,-2.561352730E0,6.888462543E0,-1.110571980E0
2.925110475E0,-4.524377346E0,8.524194717E0,-3.260145664E0
2.945004277E0,-5.869101048E0,8.397897720E0,-5.742870808E0
2.964903913E0,-6.329082012E0,6.572887421E0,-7.765548706E0
2.984791725E0,-6.027954102E0,4.731365681E0,-9.351281166E0
3.004678079E0,-5.199136257E0,3.937767029E0,-1.104087353E1
3.024595423E0,-3.902880669E0,2.835517168E0,-1.146084213E1
3.044485996E0,-2.842241526E0,7.647707462E-1,-1.058408833E1
3.064330788E0,-1.911627293E0,-1.229145765E0,-9.462664604E0
3.084222454E0,-8.328124881E-1,-1.983330727E0,-8.226061821E0
3.104134329E0,2.689713426E-2,-1.300582886E0,-6.867490768E0
3.124031725E0,1.113168478E0,-1.509302109E-1,-5.445404530E0
3.143910788E0,2.398238897E0,5.425364971E-1,-3.702017546E0
3.163796621E0,3.519130468E0,1.158707261E0,-2.146178246E0
3.183694694E0,4.504670620E0,1.791322470E0,-8.957278132E-1
3.203590579E0,5.244474888E0,2.063156605E0,2.832854092E-1
3.223506309E0,5.405391693E0,1.928338051E0,7.922670841E-1
3.243352923E0,4.760992527E0,1.569088221E0,6.553180218E-1
3.263242246E0,4.004676819E0,1.339397430E0,4.751605093E-1
3.283136569E0,3.465269566E0,1.762028575E0,3.115140796E-1
3.303023548E0,3.066073418E0,2.578596354E0,-2.856156044E-2
3.322933704E0,2.770271540E0,2.873332977E0,-5.146406963E-2
3.342803131E0,2.287920713E0,2.566878796E0,1.558569074E-1
3.362703652E0,1.624879837E0,2.126604557E0,2.219679356E-1
3.382593236E0,1.103048801E0,1.820150375E0,1.265629977E-1
3.402509225E0,6.686334610E-1,1.604240894E0,-5.126433913E-3
3.422384642E0,3.983971477E-1,1.343658328E0,-8.235582709E-2
3.442260111E0,1.894783229E-1,9.550479650E-1,-2.802894451E-2
3.462176829E0,-3.808208182E-2,6.001256704E-1,6.311506033E-2
3.482068704E0,-2.299571782E-1,5.031228662E-1,1.105845049E-1
3.501925736E0,-3.829512596E-1,6.379414201E-1,-1.151783206E-2
3.521842350E0,-3.973319232E-1,5.835479498E-1,-8.927984536E-2
3.541736621E0,-2.529262602E-1,1.460034996E-1,-2.536586113E-2
3.561616725E0,-2.476666868E-2,-2.004635334E-1,-1.684399694E-2
3.581523131E0,8.342105895E-2,-3.491967022E-1,7.989247679E-4
3.601416465E0,3.808208182E-2,-4.120454490E-1,9.320789017E-3
3.621295319E0,-8.022536337E-2,-3.491967022E-1,-4.134435579E-2
3.641174225E0,-1.734998226E-1,-3.460009992E-1,-4.667052254E-2
3.661077767E0,-2.390782386E-1,-5.101134777E-1,-1.311568171E-2
3.680957819E0,-2.870137095E-1,-7.079139352E-1,-3.282249346E-2
3.700838756E0,-3.184380829E-1,-7.958621979E-1,-7.916013151E-2
3.720720736E0,-3.264939189E-1,-7.574472427E-1,-1.324883550E-1
3.740609590E0,-3.088510036E-1,-6.860100627E-1,-1.495320797E-1
3.760522402E0,-2.912746668E-1,-6.348788738E-1,-1.452711523E-1
3.780426621E0,-2.822201848E-1,-6.279548407E-1,-1.324883550E-1
3.800289381E0,-2.683721483E-1,-6.652380228E-1,-1.106510833E-1
3.820209746E0,-2.412087023E-1,-7.196314931E-1,-1.021292135E-1
3.840096934E0,-2.251636237E-1,-7.361425757E-1,-9.733566642E-2
3.859954017E0,-2.283593267E-1,-6.471290588E-1,-1.037270650E-1
3.879858548E0,-2.348173112E-1,-5.165048838E-1,-1.138467789E-1
3.899755006E0,-2.240983993E-1,-4.600475132E-1,-1.181077138E-1
3.919676777E0,-2.043915838E-1,-4.861457348E-1,-1.095858440E-1
3.939574173E0,-1.878804713E-1,-5.165048838E-1,-9.946613014E-2
3.959421777E0,-1.777607650E-1,-5.421370268E-1,-8.022536337E-2
3.979305006E0,-1.543256342E-1,-5.820832849E-1,-5.625762045E-2
3.999222038E0,-1.228346825E-1,-5.964639187E-1,-6.584471464E-2
4.019112142E0,-1.009974033E-1,-5.746266246E-1,-9.627043456E-2
4.038970840E0,-8.395367861E-2,-5.714309216E-1,-1.484668553E-1
4.058883340E0,-7.649704814E-2,-6.236939430E-1,-2.353499234E-1
4.078744746E0,-8.235582709E-2,-6.838796139E-1,-3.174394369E-1
4.098655215E0,-7.862751186E-2,-6.721620560E-1,-3.685706258E-1
4.118562923E0,-7.543181628E-2,-6.109111309E-1,-3.840830922E-1
4.138430527E0,-9.141030908E-2,-5.831484795E-1,-3.627118468E-1
4.158318340E0,-1.350848675E-1,-5.953986645E-1,-2.892107666E-1
4.178221100E0,-1.862826198E-1,-5.453327298E-1,-1.665758193E-1
4.198107298E0,-2.017285079E-1,-3.896755576E-1,-2.483324520E-2
4.217986986E0,-1.804238409E-1,-1.551911384E-1,6.844121963E-2
4.237886204E0,-1.399449855E-1,1.342859417E-1,1.627809256E-1
4.257780579E0,-1.731003635E-2,4.833494723E-1,3.120467067E-1
4.277678913E0,2.001306564E-1,8.521864414E-1,5.278895497E-1
4.297563340E0,4.565189183E-1,1.182675004E0,7.927996516E-1
4.317447142E0,6.808836460E-1,1.491792321E0,1.052383661E0
4.337369329E0,8.866733313E-1,1.772680879E0,1.288998485E0
4.357258496E0,1.091863871E0,1.932066441E0,1.536332369E0
4.377147142E0,1.241062999E0,1.967751741E0,1.851374984E0
4.397041725E0,1.328478694E0,2.140985250E0,2.223407745E0
4.416896309E0,1.408970356E0,2.620140314E0,2.558090448E0
4.436814017E0,1.568888545E0,3.403153181E0,2.861349106E0
4.456667142E0,1.742654681E0,4.274047852E0,3.100693703E0
4.476578600E0,1.789524913E0,4.855065823E0,3.202489853E0
4.496468236E0,1.622216702E0,4.810259342E0,3.257948637E0
4.516380059E0,1.260836482E0,4.213329315E0,3.572924614E0
4.536273079E0,1.022557139E0,2.896235466E0,4.237563610E0
4.556162871E0,9.415328503E-1,1.467824578E0,4.781764507E0
4.576054642E0,8.152361512E-1,2.323539555E-1,5.004597664E0
4.595933756E0,5.556522012E-1,-9.786162376E-1,5.034956932E0
4.615817611E0,2.950029671E-1,-2.285590649E0,5.030695915E0
4.635710215E0,-8.288844675E-2,-3.726784229E0,5.157525539E0
4.655652246E0,-7.230269313E-1,-4.841284275E0,5.356324673E0
4.675551465E0,-1.388731003E0,-5.017713547E0,5.212451458E0
4.695374277E0,-1.788459659E0,-4.542286873E0,4.592552662E0
4.715251777E0,-2.257495165E0,-3.747556448E0,3.846889257E0
4.735168496E0,-2.282594681E0,-2.054767847E0,3.220598936E0
4.755042611E0,-1.349849939E0,1.009974003E0,2.803293943E0
4.774968913E0,1.127149686E-1,4.521381378E0,2.524003029E0
4.794833444E0,1.281075835E0,6.517495155E0,2.058163404E0
4.814728392E0,1.869483948E0,6.487069607E0,1.543256402E0
4.834618184E0,2.254832029E0,6.072959900E0,7.549839020E-1
4.854534381E0,2.533057451E0,6.229083061E0,-3.776916862E-1
4.874383079E0,1.566758037E0,7.380400658E0,-2.858219862E0
4.894287090E0,-1.815157056E0,5.598598480E0,-6.471423626E0
4.914195163E0,-6.218763828E0,-8.065145612E-1,-8.757480621E0
4.934076413E0,-9.223320007E0,-5.032094002E0,-9.365661621E0
4.953958496E0,-1.027650261E1,-5.009191513E0,-8.463275909E0
4.973855111E0,-9.361866951E0,-2.747702122E0,-7.093453407E0
4.993734173E0,-7.702100754E0,2.957353294E-1,-6.553513527E0
5.013664590E0,-6.018366814E0,2.081332207E0,-6.518893242E0
5.033583027E0,-4.668783188E0,1.859563947E0,-6.165502071E0
5.053399434E0,-3.354951382E0,6.224955320E-1,-5.711380005E0
5.073290892E0,-1.870549202E0,-3.758275211E-1,-4.764787197E0
5.093215371E0,6.657706574E-3,-1.183740199E-1,-3.656678677E0
5.113088704E0,1.757567883E0,4.354139864E-1,-3.091173172E0
5.132991204E0,3.079388857E0,1.278279573E-1,-2.449969292E0
5.152855371E0,3.849618912E0,-2.495308369E-1,-1.881268144E0
5.172764173E0,4.168323517E0,-3.468665108E-2,-1.849777102E0
5.192632454E0,4.133170605E0,4.583165050E-1,-1.964422822E0
5.212534121E0,4.025515556E0,1.106444240E0,-1.942518950E0
5.232410579E0,3.723788261E0,1.787594199E0,-1.805570006E0
5.252327663E0,3.281916380E0,2.269479036E0,-1.534268498E0
5.272226725E0,2.829991341E0,2.590313911E0,-1.115365505E0
5.292106465E0,2.345443487E0,2.880789518E0,-6.036542654E-1
5.311998600E0,1.884397268E0,3.153688908E0,-2.747635543E-1
5.331871100E0,1.419090152E0,3.274126768E0,-1.612496525E-1
5.351771256E0,9.884696603E-1,3.133449554E0,-3.761604056E-2
5.371679902E0,6.643725038E-1,2.817408085E0,1.169759035E-1
5.391561204E0,4.906063974E-1,2.369677544E0,1.334870160E-1
5.411452559E0,4.053211510E-1,1.609034538E0,9.726908803E-2
5.431349225E0,4.266923964E-1,5.233622789E-1,5.938674137E-2
5.451245788E0,5.290213227E-1,-7.523208112E-2,1.411433797E-2
5.471120892E0,6.175022721E-1,3.053224087E-1,7.643046975E-2
5.491016777E0,5.913375020E-1,8.569799662E-1,1.212368309E-1
5.510895215E0,4.272250235E-1,1.056910872E0,4.234301299E-2
5.530769381E0,2.497305721E-1,8.670997024E-1,-8.608414233E-2
5.550689902E0,1.121823564E-1,3.597158790E-1,-1.319557428E-1
5.570567871E0,2.689713426E-2,-6.937330216E-2,-1.404775977E-1
5.590462194E0,-1.624480449E-2,-1.956699938E-1,-1.474016160E-1
5.610357559E0,-4.933360592E-2,-1.348851323E-1,-1.314231306E-1
5.630246152E0,-8.342105895E-2,-1.167761683E-1,-9.786828607E-2
5.650142402E0,-1.015300229E-1,-2.041918486E-1,-5.359453708E-2
5.670036621E0,-1.196389869E-1,-2.948032320E-1,-1.151783206E-2
5.689903548E0,-1.361500919E-1,-3.049229383E-1,-1.950708032E-2
5.709809798E0,-1.286934614E-1,-3.070534170E-1,-5.998593569E-2
5.729706309E0,-9.034507722E-2,-3.449357748E-1,-8.182321489E-2
5.749600892E0,-4.394086078E-2,-3.353486657E-1,-1.031944528E-1
5.769513704E0,-3.328853101E-2,-3.113143444E-1,-1.122489274E-1
5.789350371E0,-5.306192115E-2,-3.507945538E-1,-1.314231306E-1
5.809270892E0,-9.194292873E-2,-4.403406978E-1,-1.511299312E-1
5.829161100E0,-1.254977584E-1,-4.952002168E-1,-1.399449855E-1
5.849021569E0,-1.318891644E-1,-4.557865858E-1,-1.149120107E-1
5.868912454E0,-1.308239251E-1,-3.859472275E-1,-8.555153012E-2
5.888823600E0,-1.345522404E-1,-3.561207056E-1,-6.158378348E-2
5.908727350E0,-1.399449855E-1,-3.806210756E-1,-5.359453708E-2
5.928598184E0,-1.468690038E-1,-4.163063765E-1,-6.584471464E-2
5.948532194E0,-1.505973190E-1,-3.997952640E-1,-7.702966034E-2
5.968386725E0,-1.521951705E-1,-3.412074447E-1,-8.608414233E-2
5.988290579E0,-1.489994675E-1,-3.102491200E-1,-8.182321489E-2
6.008177767E0,-1.260303855E-1,-2.958684862E-1,-9.467258304E-2
6.028065371E0,-9.513862431E-2,-2.777595222E-1,-9.840089828E-2
6.047937506E0,-8.022536337E-2,-2.873466015E-1,-8.874722570E-2
6.067822871E0,-7.543181628E-2,-3.342834413E-1,-9.034507722E-2
6.087706881E0,-7.543181628E-2,-3.518597782E-1,-9.893351793E-2
6.107614590E0,-7.117088139E-2,-2.953358591E-1,-1.165098622E-1
6.127513392E0,-8.235582709E-2,-2.244312763E-1,-1.276948154E-1
6.147404850E0,-1.079214215E-1,-1.972678453E-1,-1.202381775E-1
6.167282350E0,-1.265629977E-1,-1.679739356E-1,-8.821461350E-2
6.187159069E0,-1.244325340E-1,-8.588441461E-2,-8.854749613E-3
6.207066829E0,-1.148454323E-1,1.271621883E-2,9.513862431E-2
6.226935944E0,-1.073888019E-1,9.214265645E-2,1.798246503E-1
6.246856673E0,-5.465976894E-2,2.035260797E-1,2.539249361E-1
6.266719381E0,1.270956099E-1,3.453352451E-1,3.866795897E-1
6.286624694E0,4.325511754E-1,4.077179432E-1,6.803510189E-1
6.306540319E0,7.208964229E-1,4.119788706E-1,1.058242440E0
6.326435215E0,8.850755095E-1,4.982627332E-1,1.418024898E0
6.346330788E0,1.014035225E0,7.429334521E-1,1.750044703E0
6.366218652E0,1.179812193E0,1.065432787E0,2.053902388E0
6.386093444E0,1.458037734E0,1.364962935E0,2.336388826E0
6.405988600E0,1.810896158E0,1.617622972E0,2.535187960E0
6.425852246E0,2.056565523E0,1.838259339E0,2.542644739E0
6.445750111E0,2.113621950E0,1.879803419E0,2.609820843E0
6.465674277E0,2.056565523E0,1.450248241E0,3.039908648E0
6.485575892E0,2.122143984E0,8.117075562E-1,3.600088120E0
6.505433548E0,2.269811869E0,3.133116663E-1,4.136832237E0
6.525332402E0,2.317747355E0,-1.860828996E-1,4.647478580E0
6.545208027E0,2.260158062E0,-9.344090819E-1,5.086620808E0
6.565086569E0,1.893984318E0,-1.788259983E0,5.557853222E0
6.584998913E0,1.413231373E0,-2.266882420E0,6.089204788E0
6.604900788E0,1.111038089E0,-1.727009058E0,6.367430210E0
6.624788496E0,9.847413301E-1,-1.093195379E-1,6.203318119E0
6.644645944E0,9.298152924E-1,2.107430458E0,5.788609505E0
6.664562559E0,1.292793393E0,4.502207279E0,5.258256435E0
6.684465579E0,2.049108982E0,6.087873459E0,4.485429764E0
6.704349486E0,2.760151863E0,5.488213539E0,3.595827341E0
6.724242663E0,3.116738558E0,3.125992775E0,2.683921099E0
6.744121309E0,3.279253244E0,1.581871033E0,1.351381302E0
6.764015631E0,2.921135187E0,3.072132111E0,-5.061188340E-1
6.783893548E0,9.628375173E-1,6.365033627E0,-3.571926117E0
6.803781569E0,-3.480249405E0,5.389080524E0,-7.732526302E0
6.823686881E0,-8.799556732E0,-1.427944899E0,-1.080738831E1
6.843600319E0,-1.205830479E1,-5.882749557E0,-1.105365658E1
6.863505215E0,-1.335882092E1,-4.608930588E0,-9.410934448E0
6.883338600E0,-1.314031506E1,-8.496564627E-1,-6.831206322E0
6.903257038E0,-1.154452991E1,3.468199015E0,-4.595282078E0
6.923121204E0,-8.146636009E0,6.440731525E0,-5.189083099E0
6.943007975E0,-4.286098003E0,5.462115288E0,-5.350532532E0
6.962902090E0,-2.125339508E0,2.620140314E0,-4.822908878E0
6.982821152E0,-7.624405622E-1,5.175035000E-1,-3.627384663E0
7.002680006E0,8.834776282E-1,-7.150376588E-2,-2.574668169E0
7.022590267E0,2.520807266E0,-3.027924895E-1,-2.029402018E0
7.042489538E0,3.952480555E0,-7.537189126E-1,-1.324284434E0
7.062353548E0,4.781831264E0,-7.457296848E-1,-7.598440051E-1
7.082245006E0,5.029630661E0,-2.989310212E-2,-7.465286255E-1
7.102161829E0,5.030695915E0,9.278845191E-1,-1.105711937E0
7.122042819E0,4.963053703E0,1.762028575E0,-1.459635496E0
7.141923131E0,4.804733753E0,2.349904060E0,-1.742122054E0
7.161801413E0,4.586760044E0,2.537584782E0,-1.753839612E0
7.181711152E0,4.128909588E0,2.323805809E0,-1.484735131E0
7.201609746E0,3.354418755E0,2.020014763E0,-1.272021413E0
7.221502559E0,2.689779997E0,1.951773167E0,-1.198986292E0
7.241368444E0,2.321475744E0,1.825476527E0,-9.634367228E-1
7.261264434E0,1.947312593E0,1.566957831E0,-5.252930522E-1
7.281177506E0,1.495853424E0,1.410235405E0,-2.172409594E-1
7.301078184E0,1.035339952E0,1.426813006E0,-6.477948278E-2
7.320951413E0,7.166355252E-1,1.534468174E0,-1.364829857E-2
7.340835111E0,5.071175098E-1,1.556305408E0,2.849498391E-2
7.360741152E0,3.344831765E-1,1.449182987E0,9.134373069E-2
7.380605840E0,1.793586165E-1,1.253046870E0,1.260303855E-1
7.400534069E0,1.724345982E-1,1.081943870E0,8.441971987E-2
7.420390684E0,2.966008186E-1,1.117096543E0,1.143128201E-1
7.440280631E0,3.355484009E-1,1.113900900E0,1.905435622E-1
7.460201204E0,2.678395212E-1,8.511211872E-1,1.878804713E-1
7.480079642E0,1.516625583E-1,3.980642557E-1,8.708280325E-2
7.499969590E0,2.396774245E-3,-7.150376588E-2,2.796236612E-2
7.519855006E0,-1.238999143E-1,-3.070534170E-1,-6.724283565E-3
7.539772090E0,-1.798912287E-1,-2.761616707E-1,-3.601819277E-2
7.559651204E0,-2.017285079E-1,-2.553896308E-1,-5.732285231E-2
7.579580111E0,-2.332194597E-1,-3.902081847E-1,-7.117088139E-2
7.599400475E0,-2.513284087E-1,-5.804854035E-1,-8.555153012E-2
7.619312767E0,-2.715678513E-1,-7.292186022E-1,-7.223611325E-2
7.639208236E0,-3.168402612E-1,-7.505232692E-1,-3.708342463E-2
7.659067663E0,-3.595161438E-1,-6.636402011E-1,-7.702966034E-2
7.678986100E0,-3.914731443E-1,-6.460638046E-1,-1.170424819E-1
7.698867350E0,-4.111799598E-1,-7.446644902E-1,-1.399449855E-1
7.718741100E0,-4.117125571E-1,-8.874722719E-1,-1.197055578E-1
7.738661100E0,-3.957340717E-1,-9.221588969E-1,-8.555153012E-2
7.758552663E0,-3.637770712E-1,-8.272866011E-1,-9.360735118E-2
7.778442975E0,-3.440702558E-1,-7.159031630E-1,-1.282274276E-1
7.798332350E0,-3.344831765E-1,-6.769555807E-1,-1.314231306E-1
7.818211152E0,-3.168402612E-1,-7.036529779E-1,-1.015966013E-1
7.838115579E0,-3.035248220E-1,-6.806839108E-1,-8.927984536E-2
7.857993184E0,-2.918072641E-1,-5.874094367E-1,-9.573781490E-2
7.877871777E0,-2.689047754E-1,-5.063851476E-1,-9.627043456E-2
7.897777923E0,-2.369477749E-1,-5.053198934E-1,-7.969274372E-2
7.917681725E0,-2.177069932E-1,-5.234954357E-1,-6.158378348E-2
7.937561986E0,-2.065220475E-1,-4.504604042E-1,-3.335510939E-2
7.957429486E0,-2.006632686E-1,-3.123795986E-1,-3.388772532E-2
7.977349746E0,-1.766955256E-1,-2.398771644E-1,-5.199668556E-2
7.997239850E0,-1.527277827E-1,-2.841508985E-1,-4.986622185E-2
8.017111777E0,-1.452711523E-1,-3.320863843E-1,-2.057231218E-2
8.036987506E0,-1.495320797E-1,-2.591179311E-1,1.517957076E-2
8.056913652E0,-1.505973190E-1,-1.226349548E-1,-1.045259926E-2
8.076786204E0,-1.479342431E-1,-9.973244369E-2,-3.228987753E-2
8.096685475E0,-1.489994675E-1,-1.322220564E-1,2.902759984E-2
8.116561673E0,-1.286934614E-1,-6.884068251E-2,1.100518852E-1
8.136438652E0,-9.300816059E-2,6.870753318E-2,1.900109351E-1
8.156349850E0,-6.105116755E-2,1.358837932E-1,2.416747361E-1
8.176218444E0,-4.074516147E-2,4.726971500E-3,2.827527821E-1
8.196132819E0,5.892070010E-2,-2.366814613E-1,3.744294047E-1
8.216008861E0,2.976660430E-1,-3.001294136E-1,5.620435476E-1
8.235894329E0,6.617094278E-1,-5.712312087E-2,7.197646499E-1
8.255790423E0,1.089200735E0,3.187043965E-1,7.714950442E-1
8.275700892E0,1.533735871E0,5.302863121E-1,8.098434210E-1
8.295582142E0,1.968617201E0,4.838820994E-1,9.127049446E-1
8.315476621E0,2.295377493E0,3.698355854E-1,9.596418142E-1
8.335368600E0,2.451500654E0,2.019282281E-1,9.633701444E-1
8.355249590E0,2.496306896E0,-3.150426745E-1,1.043329120E0
8.375179746E0,2.503231049E0,-1.036205411E0,1.136603594E0
8.395051204E0,2.513350725E0,-1.257374406E0,1.153647423E0
8.414944538E0,2.568809509E0,-8.432651162E-1,1.267693877E0
8.434837663E0,2.599701166E0,-1.871481240E-1,1.660498500E0
8.454703965E0,2.648768425E0,4.423380196E-1,2.305430651E0
8.474602611E0,2.743640900E0,8.772859573E-1,3.398093462E0
8.494488704E0,2.790511131E0,1.129879355E0,4.820712090E0
8.514380996E0,2.761749744E0,1.172555208E0,6.311505795E0
8.534263756E0,2.588516235E0,1.019561172E0,7.769742966E0
8.554181829E0,2.328399658E0,9.977238774E-1,8.986639023E0
8.574069954E0,2.251636267E0,1.678341150E0,9.564393997E0
8.593956621E0,2.411554337E0,2.902626753E0,9.555339813E0
8.613857975E0,2.589581490E0,3.853547096E0,9.099619865E0
8.633746309E0,2.974396944E0,4.138164043E0,7.694111347E0
8.653631256E0,4.015329361E0,3.679248333E0,5.993267536E0
8.673537402E0,5.171440125E0,3.053490400E0,3.773854256E0
8.693431361E0,5.379293442E0,3.390902996E0,3.546560109E-1
8.713287715E0,4.764720917E0,4.940816879E0,-3.600687265E0
8.733177506E0,2.999429941E0,5.061854362E0,-7.340786934E0
8.753086413E0,-1.145125508E0,1.394256830E0,-1.112722397E1
8.772954798E0,-6.243264198E0,-3.497626066E0,-1.422498894E1
8.792854329E0,-9.809064865E0,-5.302863121E0,-1.544661140E1
8.812753392E0,-1.162874985E1,-4.793348789E0,-1.408750725E1
8.832642819E0,-1.380069256E1,-3.796623707E0,-1.010120487E1
8.852535475E0,-1.511612225E1,-1.013302922E0,-5.738610268E0
8.872415059E0,-1.216595936E1,2.887181044E0,-3.891762257E0
8.892316413E0,-7.378602982E0,4.419585228E0,-4.190227032E0
8.912188965E0,-4.586760044E0,2.764612675E0,-3.575654268E0
8.932110371E0,-3.031985998E0,2.845503688E-1,-3.148229599E0
8.951989434E0,-1.332739711E0,-1.862892866E0,-3.059748650E0
8.971880423E0,5.204994678E-1,-3.129321814E0,-2.712749004E0
8.991752767E0,1.943051577E0,-3.360077858E0,-2.418012381E0
9.011653131E0,2.754825830E0,-3.067471743E0,-2.149374008E0
9.031561569E0,3.228654623E0,-2.453963995E0,-2.112024307E0
9.051455267E0,3.588969707E0,-1.665158987E0,-2.384923697E0
9.071311152E0,3.769659996E0,-9.535833001E-1,-2.538450241E0
9.091208027E0,3.772323132E0,-3.955343366E-1,-2.513417244E0
9.111101934E0,3.787236214E0,1.353511661E-1,-2.565081120E0
9.130978756E0,3.755279303E0,7.173678875E-1,-2.543776512E0
9.150890059E0,3.297961473E0,1.465161443E0,-2.295377493E0
9.170792038E0,2.703628063E0,2.446440697E0,-1.987857938E0
9.190651777E0,2.420608997E0,3.208082438E0,-1.554507852E0
9.210578131E0,2.229266405E0,3.517199755E0,-9.543822408E-1
9.230453236E0,2.043782711E0,3.833840132E0,-4.778901637E-1
9.250360267E0,1.871081829E0,4.229308128E0,-3.051892519E-1
9.270248392E0,1.570486307E0,4.232503891E0,-1.452711523E-1
9.290107923E0,1.175551176E0,3.621126413E0,1.318891644E-1
9.310032975E0,9.085106254E-1,2.762482166E0,3.535907865E-1
9.329886725E0,7.453967929E-1,2.101038933E0,4.276910722E-1
9.349789902E0,6.808836460E-1,1.822813392E0,3.456015289E-1
9.369687715E0,7.171681523E-1,1.674080253E0,2.934051156E-1
9.389610319E0,8.599759340E-1,1.540859580E0,3.306882679E-1
9.409508548E0,9.943284392E-1,1.519554853E0,3.232316375E-1
9.429369902E0,9.212934375E-1,1.479009509E0,3.067205250E-1
9.449261986E0,7.624405622E-1,1.455041766E0,2.288919389E-1
9.469158600E0,5.748263597E-1,1.282873392E0,1.260303855E-1
9.489031048E0,3.994623721E-1,8.975253701E-1,1.404110342E-1
9.508923236E0,3.296896219E-1,6.262238622E-1,1.526612043E-1
9.528813236E0,3.189707100E-1,5.654389858E-1,9.300816059E-2
9.548678184E0,2.763614058E-1,4.391423166E-1,1.411433797E-2
9.568605371E0,2.129134536E-1,1.603841484E-1,-1.897446252E-2
9.588496621E0,1.318891644E-1,-1.045259908E-1,-8.322132751E-3
9.608377871E0,5.625762045E-2,-2.489982247E-1,-1.258306485E-2
9.628283079E0,6.125089712E-3,-2.916075289E-1,-3.388772532E-2
9.648155944E0,-6.264901906E-2,-3.145100474E-1,-3.069202602E-2
9.668064069E0,-1.201715991E-1,-3.689035177E-1,-3.069202602E-2
9.687918340E0,-1.644453406E-1,-4.930697381E-1,-4.826837033E-2
9.707831777E0,-2.097177505E-1,-6.908035874E-1,-4.613790661E-2
9.727737246E0,-2.433391660E-1,-8.714937568E-1,-1.524614729E-2
9.747643548E0,-2.571871877E-1,-9.274850488E-1,1.464695390E-2
9.767549017E0,-2.283593267E-1,-7.808823586E-1,1.784265228E-2
9.787376725E0,-1.809564531E-1,-5.159722567E-1,-3.814865649E-2
9.807290163E0,-1.270956099E-1,-3.209014535E-1,-9.247554094E-2
9.827174277E0,-1.105845049E-1,-3.145100474E-1,-9.087768942E-2
9.847059694E0,-1.148454323E-1,-3.609142601E-1,-9.573781490E-2
9.866965267E0,-1.334870160E-1,-3.555881083E-1,-8.288844675E-2
9.886822298E0,-1.564560980E-1,-3.390769958E-1,-6.904041767E-2
9.906726361E0,-1.798912287E-1,-3.774253726E-1,-5.412715301E-2
9.926641361E0,-2.113156021E-1,-4.419385493E-1,-4.081173986E-2
9.946558079E0,-2.566545904E-1,-4.770912528E-1,-2.802894451E-2
9.966396881E0,-2.875463367E-1,-5.277563930E-1,-3.495295718E-2
9.986281309E0,-3.013943732E-1,-6.758903265E-1,-3.974650800E-2
1.000621886E1,-3.088510036E-1,-8.907345533E-1,-4.347482324E-2
1.002608188E1,-3.280917704E-1,-1.078881264E0,-5.199668556E-2
1.004594365E1,-3.493964374E-1,-1.160904288E0,-5.093145370E-2
1.006584105E1,-3.446028829E-1,-1.094327211E0,-7.117088139E-2
1.008572370E1,-3.157750070E-1,-1.001585364E0,-1.122489274E-1
1.010562928E1,-2.966008186E-1,-1.012770295E0,-1.202381775E-1
1.012557001E1,-2.795570791E-1,-1.030879259E0,-1.063901484E-1
1.014541553E1,-2.625133693E-1,-9.583768249E-1,-9.573781490E-2
1.016529282E1,-2.374803871E-1,-8.049166799E-1,-1.005313694E-1
1.018521751E1,-2.219679356E-1,-6.274222732E-1,-6.531210244E-2
1.020509178E1,-2.075872868E-1,-4.685693681E-1,-1.471353136E-2
1.022499745E1,-1.655105799E-1,-3.294233084E-1,1.944050193E-2
1.024486766E1,-1.571218669E-2,-1.263632625E-1,9.780170768E-2
1.026477537E1,2.752961516E-1,1.150451675E-1,2.283593267E-1
1.028466922E1,6.563832760E-1,3.117138147E-1,4.191691875E-1
1.030455329E1,1.066830873E0,5.063185692E-1,7.123079896E-1
1.032445100E1,1.422818422E0,7.535858154E-1,1.119559884E0
1.034434329E1,1.648847580E0,1.048322439E0,1.579008222E0
1.036422126E1,1.654173732E0,1.138933778E0,2.209492922E0
1.038410397E1,1.308771968E0,8.617734909E-1,3.069801807E0
1.040400975E1,8.594433069E-1,5.228297114E-1,3.893826246E0
1.042388105E1,5.663045049E-1,3.203022480E-1,4.682631016E0
1.044380058E1,5.540543199E-1,4.953333735E-2,5.907981873E0
1.046370620E1,8.322798610E-1,-1.866155118E-1,7.091256142E0
1.048360751E1,1.189399242E0,-3.497293293E-1,7.679131508E0
1.050347251E1,1.289597750E0,-6.939992905E-1,8.086383820E0
1.052336032E1,1.111570716E0,-7.872737646E-1,8.392305374E0
1.054324391E1,1.216030121E0,-6.085143611E-2,8.255355835E0
1.056313865E1,1.799644589E0,1.701243758E0,7.790581703E0
1.058300167E1,2.680725574E0,4.760193348E0,6.983601093E0
1.060291324E1,3.021866322E0,8.371267319E0,5.622299671E0
1.062278657E1,2.669008017E0,9.598216057E0,4.019590378E0
1.064268600E1,3.445562840E0,6.912962914E0,3.133715868E0
1.066259683E1,5.085622311E0,2.909084797E0,2.164220572E0
1.068253360E1,5.371837139E0,9.534501433E-1,-1.042596847E-1
1.070237209E1,5.291345119E0,3.591300011E0,-5.146939754E0
1.072226235E1,2.236722946E0,2.670805454E0,-1.148274612E1
1.074215704E1,-4.627771854E0,-8.681582451E0,-1.359124184E1
1.076202350E1,-1.084573650E1,-1.542830276E1,-1.215750408E1
1.078191152E1,-1.237015152E1,-1.105605316E1,-7.314156055E0
1.080180162E1,-9.018595695E0,-1.839990258E0,-4.320252419E0
1.082169292E1,-6.097793102E0,4.522446632E0,-3.180719137E0
1.084158730E1,-4.842549324E0,5.853855133E0,-3.377920389E0
1.086152126E1,-3.692363977E0,3.013011694E0,-3.488238573E0
1.088141912E1,-1.927605748E0,-5.458653569E-1,-2.473937035E0
1.090125443E1,-6.264901906E-2,-1.914623260E0,-2.063556194E0
1.092117495E1,1.269358277E0,-1.894317150E0,-2.140319347E0
1.094104001E1,2.196776867E0,-1.591058731E0,-2.165352345E0
1.096094808E1,2.801696062E0,-8.523195982E-1,-2.383858442E0
1.098084266E1,3.107151508E0,-7.736254483E-2,-2.834252119E0
1.100072985E1,3.374658108E0,1.342859417E-1,-3.187643290E0
1.102060011E1,3.421062469E0,2.264951766E-1,-3.201491356E0
1.104052719E1,3.172130823E0,7.813484073E-1,-2.967539549E0
1.106037870E1,2.808087349E0,1.966153860E0,-2.642909765E0
1.108027574E1,2.862480879E0,2.807754517E0,-2.550700426E0
1.110017261E1,2.945635557E0,2.740112305E0,-2.316748619E0
1.112005870E1,2.867807150E0,2.509822130E0,-1.685664654E0
1.113997449E1,2.497372150E0,2.704360247E0,-1.080146313E0
1.115982777E1,2.187722206E0,3.105753422E0,-7.603766322E-1
1.117975183E1,2.009162664E0,2.951161623E0,-5.034557581E-1
1.119965558E1,1.750111222E0,2.127137184E0,-1.575213373E-1
1.121956896E1,1.483603239E0,1.367626071E0,4.979964346E-2
1.123941490E1,1.152049541E0,1.019028544E0,9.460600466E-2
1.125928709E1,8.668999672E-1,8.815469146E-1,1.633135378E-1
1.127920756E1,7.278204560E-1,7.205635905E-1,2.358159572E-1
1.129909839E1,6.164370179E-1,5.750260949E-1,2.347507328E-1
1.131895943E1,4.783562124E-1,5.681020617E-1,1.217694506E-1
1.133887631E1,2.838180363E-1,6.192998290E-1,1.890788600E-2
1.135875339E1,1.238999143E-1,6.374087930E-1,-1.098521519E-2
1.137863402E1,1.198387146E-2,5.665042400E-1,-4.294220731E-2
1.139854620E1,-7.117088139E-2,3.336176574E-1,-1.154446304E-1
1.141846365E1,-1.836195439E-1,-4.327509087E-3,-1.890122890E-1
1.143833110E1,-2.444044054E-1,-2.745638192E-1,-2.481327206E-1
1.145820376E1,-2.699699998E-1,-4.648410678E-1,-2.385456264E-1
1.147808251E1,-2.806223333E-1,-5.655721426E-1,-2.193714231E-1
1.149799782E1,-2.976660430E-1,-6.348788738E-1,-2.657090724E-1
1.151787787E1,-3.200359344E-1,-7.515884638E-1,-2.705025971E-1
1.153777438E1,-3.493964374E-1,-8.523195982E-1,-2.129800320E-1
1.155769620E1,-3.707011044E-1,-8.746894598E-1,-1.575213373E-1
1.157756282E1,-3.770924807E-1,-8.853418231E-1,-1.404775977E-1
1.159743485E1,-3.872122169E-1,-9.706270099E-1,-1.410102248E-1
1.161732428E1,-4.298880994E-1,-1.137469172E0,-1.580539495E-1
1.163722532E1,-4.890085459E-1,-1.214232445E0,-2.028603107E-1
1.165714219E1,-5.119776130E-1,-1.115099192E0,-2.667742968E-1
1.167701600E1,-5.093145370E-1,-9.189631939E-1,-3.185046613E-1
1.169688141E1,-4.842149913E-1,-7.297511697E-1,-3.142437339E-1
1.171679287E1,-4.634429514E-1,-6.716294289E-1,-2.726330757E-1
1.173667584E1,-4.602472484E-1,-7.941977978E-1,-2.257628292E-1
1.175658339E1,-4.586493969E-1,-9.365395308E-1,-1.809564531E-1
1.177657219E1,-4.719648063E-1,-9.445288181E-1,-1.420754492E-1
1.179635016E1,-4.826171398E-1,-8.880048990E-1,-1.213034093E-1
1.181624449E1,-4.884759188E-1,-8.762873411E-1,-9.573781490E-2
1.183614636E1,-4.900737703E-1,-8.741568327E-1,-8.022536337E-2
1.185603532E1,-4.810192883E-1,-8.107754588E-1,-8.288844675E-2
1.187592032E1,-4.655734003E-1,-6.556509137E-1,-1.154446304E-1
1.189579933E1,-4.410730600E-1,-4.744281471E-1,-1.671084315E-1
1.191570855E1,-3.946688473E-1,-3.779579997E-1,-1.665758193E-1
1.193564277E1,-3.387441039E-1,-3.353486657E-1,-1.234338731E-1
1.195554240E1,-2.944703400E-1,-2.660419345E-1,-9.680305421E-2
1.197537928E1,-2.646438181E-1,-1.695717871E-1,-8.714937419E-2
1.199527266E1,-2.444044054E-1,-7.256899774E-2,-7.543181628E-2
1.201514954E1,-2.033263594E-1,2.709686570E-2,-2.536586113E-2
1.203502277E1,-1.244325340E-1,1.401447207E-1,6.471290439E-2
1.205491152E1,-2.476666868E-2,2.573869228E-1,1.462698132E-1
1.207483115E1,8.288844675E-2,3.581180274E-1,2.043915838E-1
1.209468449E1,2.529262602E-1,4.577838778E-1,3.003291488E-1
1.211457688E1,5.561847687E-1,5.601128340E-1,4.756931365E-1
1.213449610E1,9.762194753E-1,6.741593480E-1,7.128406167E-1
1.215437146E1,1.402578950E0,8.607082963E-1,9.206942320E-1
1.217428339E1,1.660032511E0,1.062237024E0,1.052383661E0
1.219415855E1,1.777807355E0,1.048855066E0,1.202115417E0
1.221404636E1,1.858831644E0,9.753540158E-1,1.495853424E0
1.223392933E1,1.899909616E0,1.060639262E0,1.952106118E0
1.225383266E1,1.838059545E0,1.154446244E0,2.433391571E0
1.227371855E1,1.616824031E0,9.545153379E-1,2.853359699E0
1.229361912E1,1.232541203E0,4.689688385E-1,3.361342907E0
1.231352761E1,9.149020314E-1,2.355496585E-1,4.096886158E0
1.233341256E1,9.794151783E-1,8.628387749E-2,5.478959560E0
1.235331173E1,1.306108832E0,-2.750964165E-1,6.898315907E0
1.237321355E1,1.682934999E0,-1.013835549E0,7.859289169E0
1.239309141E1,2.205298662E0,-1.789325118E0,8.649758339E0
1.241296042E1,3.086313009E0,-1.585199952E0,9.370388985E0
1.243285074E1,4.297283173E0,3.127790391E-1,9.589426994E0
1.245276360E1,5.210853577E0,3.065740585E0,9.224851608E0
1.247262438E1,5.382489204E0,4.930697441E0,8.276127815E0
1.249253641E1,4.862855434E0,4.966449261E0,6.856771946E0
1.251240313E1,3.741364717E0,4.313528061E0,4.944345474E0
1.253231381E1,3.018137932E0,4.912055969E0,2.022943974E0
1.255221089E1,1.920149088E0,6.764229774E0,-1.267760396E0
1.257210157E1,-1.884130985E-1,7.666615009E0,-4.926303387E0
1.259196844E1,-3.077258587E0,5.304327965E0,-9.561264992E0
1.261186834E1,-6.028486729E0,1.182142377E0,-1.312433624E1
1.263175433E1,-7.547575474E0,-1.119360209E0,-1.560067081E1
1.265165480E1,-8.833111763E0,-3.235378981E0,-1.595299625E1
1.267155652E1,-1.015286922E1,-5.387615681E0,-1.269211864E1
1.269144975E1,-1.012404156E1,-4.639822006E0,-7.776800156E0
1.271131490E1,-8.211681366E0,-1.933264732E0,-3.639634848E0
1.273122699E1,-5.801991463E0,9.193626642E-1,-1.008709073E0
1.275110891E1,-3.663069963E0,2.979922771E0,-9.985893965E-1
1.277100115E1,-1.983530521E0,2.606292248E0,-1.813026547E0
1.279089324E1,-3.072531521E-1,2.595174015E-1,-2.122143984E0
1.281077699E1,1.061970711E0,-1.855436206E0,-2.586385727E0
1.283067902E1,1.937192798E0,-2.579262018E0,-3.146631718E0
1.285056282E1,2.537318468E0,-2.111824512E0,-3.570328236E0
1.287050959E1,2.958418369E0,-1.280343533E0,-3.910403967E0
1.289035058E1,3.271796703E0,-4.675041437E-1,-4.022319794E0
1.291022110E1,3.483445168E0,6.698983908E-1,-3.854412556E0
1.293012928E1,3.503151894E0,2.284924746E0,-3.560208559E0
1.295002391E1,3.421595097E0,3.947886705E0,-3.168468952E0
1.296990870E1,3.087378263E0,5.030895710E0,-2.548037291E0
1.298980766E1,2.643442392E0,5.362982273E0,-2.023010731E0
1.300971537E1,2.307627678E0,5.318775177E0,-1.521485686E0
1.302959022E1,2.025673866E0,5.192944527E0,-9.026518464E-1
1.304948360E1,1.796981573E0,4.859859467E0,-4.208336174E-1
1.306934980E1,1.512897253E0,4.121120453E0,-1.175750941E-1
1.308925699E1,1.186203599E0,3.201158285E0,9.460600466E-2
1.310915225E1,9.890022874E-1,2.570074320E0,3.013943732E-1
1.312901396E1,9.521851540E-1,2.457093239E0,3.888100684E-1
1.314893548E1,9.180977345E-1,2.443245173E0,3.877448142E-1
1.316880438E1,8.439974189E-1,2.163355112E0,3.877448142E-1
1.318870626E1,7.363423109E-1,1.833998322E0,2.539249361E-1
1.320858782E1,6.558506489E-1,1.586131930E0,4.713656008E-2
1.322851022E1,6.116434932E-1,1.368158698E0,-7.543181628E-2
1.324837443E1,5.439345837E-1,1.214099288E0,-1.266295761E-1
1.326824766E1,4.767583609E-1,9.955934286E-1,-1.863491982E-1
1.328816079E1,4.095821083E-1,4.897408783E-1,-1.601844132E-1
1.330806714E1,3.477985859E-1,-1.637129933E-1,-8.661676198E-2
1.332792855E1,2.582524419E-1,-6.060510278E-1,-9.087768942E-2
1.334781928E1,1.308239251E-1,-7.499906421E-1,-1.250317246E-1
1.336774683E1,5.059856921E-3,-7.526537180E-1,-2.049907744E-1
1.338760834E1,-7.649704814E-2,-8.336780071E-1,-2.710352242E-1
1.340754928E1,-1.447385401E-1,-9.946613312E-1,-2.577198148E-1
1.342737214E1,-2.235657871E-1,-1.032477140E0,-2.241649777E-1
1.344728813E1,-2.987312973E-1,-8.448629379E-1,-2.081864774E-1
1.346716568E1,-3.323526978E-1,-6.049857736E-1,-2.262954414E-1
1.348707391E1,-3.424724042E-1,-6.071162224E-1,-2.108495682E-1
1.350695594E1,-3.605813682E-1,-7.766214609E-1,-1.766955256E-1
1.352683277E1,-3.909405172E-1,-8.997890353E-1,-1.809564531E-1
1.354674308E1,-4.229640961E-1,-9.147022963E-1,-1.954036802E-1
1.356663506E1,-4.522579908E-1,-8.960607052E-1,-1.900775135E-1
1.358657610E1,-4.820845127E-1,-8.864070177E-1,-1.639127284E-1
1.360639506E1,-4.874106944E-1,-8.832113147E-1,-1.298252791E-1
1.362628511E1,-4.533232152E-1,-8.741568327E-1,-1.175750941E-1
1.364620964E1,-3.941362202E-1,-8.331453800E-1,-1.655105799E-1
1.366606808E1,-3.398093283E-1,-7.851433158E-1,-2.023276985E-1
1.368597454E1,-2.992638946E-1,-7.292186022E-1,-2.001972347E-1
1.370584959E1,-2.715678513E-1,-6.513900161E-1,-2.007298470E-1
1.372574980E1,-2.534588873E-1,-5.421370268E-1,-2.113821805E-1
1.374565985E1,-2.396108508E-1,-4.232304096E-1,-2.220345140E-1
1.376558490E1,-2.118482143E-1,-3.705013692E-1,-2.087190896E-1
1.378542688E1,-1.788259894E-1,-3.784905970E-1,-1.543256342E-1
1.380532943E1,-1.286934614E-1,-3.880777061E-1,-6.158378348E-2
1.382520995E1,-7.862751186E-2,-3.800884485E-1,-9.919982404E-3
1.384510256E1,-6.105116755E-2,-3.625121117E-1,-1.045259926E-2
1.386498688E1,-7.170350105E-2,-3.198362291E-1,1.091863867E-2
1.388485574E1,-9.141030908E-2,-2.458025217E-1,3.488638252E-2
1.390474980E1,-9.673647583E-2,-1.882133633E-1,2.689713426E-2
1.392465287E1,-8.661676198E-2,-1.663760841E-1,3.488638252E-2
1.394456652E1,-6.531210244E-2,-1.268958896E-1,6.471290439E-2
1.396445172E1,-3.115806542E-2,-5.659050494E-2,8.814803511E-2
1.398431516E1,1.304910425E-2,-1.551245619E-2,1.159106717E-1
1.400424173E1,6.158378348E-2,4.314193875E-2,1.175085157E-1
1.402411943E1,9.886693954E-2,1.433404237E-1,1.116497368E-1
1.404397829E1,1.302913129E-1,2.104500979E-1,1.489328891E-1
1.406387022E1,1.612496525E-1,2.125805616E-1,2.246310115E-1
1.408377370E1,2.118482143E-1,2.056565434E-1,3.216337860E-1
1.410368985E1,2.950029671E-1,1.662429273E-1,4.303541481E-1
1.412357256E1,3.920057416E-1,-4.320851341E-2,5.881417990E-1
1.414342495E1,4.661060274E-1,-4.115128219E-1,8.461279273E-1
1.416333433E1,6.105782390E-1,-6.998580694E-1,1.148853779E0
1.418324443E1,7.944641113E-1,-7.894042730E-1,1.453177571E0
1.420312397E1,9.847413301E-1,-7.014559507E-1,1.770350695E0
1.422303568E1,1.182475209E0,-7.164357901E-1,2.098642111E0
1.424288110E1,1.338598490E0,-9.764857888E-1,2.271875620E0
1.426279167E1,1.358371854E0,-1.294191599E0,2.272940874E0
1.428269089E1,1.441526532E0,-1.457305312E0,2.501633167E0
1.430256636E1,1.875342727E0,-1.378411531E0,3.144900799E0
1.432247558E1,2.697236538E0,-1.027150989E0,3.863400459E0
1.434237506E1,3.579915285E0,-6.540530920E-1,4.489690781E0
1.436224980E1,4.431103230E0,-2.265617549E-1,4.686359406E0
1.438214167E1,5.409652710E0,-4.147085249E-1,5.396870136E0
1.440201761E1,5.574896812E0,-1.276615143E0,6.587600708E0
1.442194912E1,6.002388477E0,-3.198362291E-1,6.517761230E0
1.444179355E1,6.363235950E0,1.709299564E0,6.306179523E0
1.446170824E1,6.109510899E0,3.708009481E0,6.436737061E0
1.448161370E1,5.179961681E0,5.384819508E0,5.758782864E0
1.450149803E1,3.921522141E0,5.785679817E0,4.531234741E0
1.452139048E1,2.736184120E0,5.157258987E0,3.387440920E0
1.454126022E1,1.547051191E0,5.105528831E0,1.665292144E0
1.456117318E1,-4.106473327E-1,5.614576817E0,-7.299509048E-1
1.458107219E1,-3.069269180E0,6.191800117E0,-3.467999220E0
1.460094600E1,-6.276352882E0,6.764762402E0,-6.742725372E0
1.462081709E1,-8.866733551E0,6.074025154E0,-1.014754295E1
1.464071646E1,-9.883165359E0,3.518797636E0,-1.326135254E1
1.466062141E1,-1.018695641E1,-5.991269946E-1,-1.455654240E1
1.468053219E1,-1.032450485E1,-3.974650621E0,-1.339297485E1
1.470037844E1,-9.394955635E0,-5.127499104E0,-1.079993153E1
1.472027105E1,-7.210695267E0,-4.429838181E0,-7.461225033E0
1.474018506E1,-4.692285061E0,-2.447040081E0,-4.645414829E0
1.476007891E1,-2.450435400E0,-1.535932869E-1,-2.993105173E0
1.477994079E1,-1.137668848E0,1.436932802E0,-2.465415239E0
1.479983777E1,1.862826198E-1,1.697515368E0,-2.233061314E0
1.481975600E1,1.709033251E0,1.442258954E0,-2.010227919E0
1.483965308E1,2.823067188E0,2.003503561E0,-2.146710873E0
1.485954589E1,3.538837194E0,2.736383915E0,-2.699966192E0
1.487941881E1,3.699820518E0,1.725278020E0,-2.823599815E0
1.489930761E1,2.975462198E0,-4.427374899E-2,-2.237322330E0
1.491918897E1,2.316682100E0,-1.898112148E-1,-2.027804136E0
1.493907282E1,2.334790945E0,1.060639262E0,-2.139786720E0
1.495895412E1,2.617810249E0,2.349904060E0,-1.972944736E0
1.497887454E1,2.597038031E0,3.172863245E0,-1.462831259E0
1.499874870E1,2.251636267E0,3.836503267E0,-9.437298775E-1
1.501863620E1,1.838592172E0,4.425444126E0,-6.238936782E-1
1.503854808E1,1.593921542E0,4.470183849E0,-2.806889117E-1
1.505842969E1,1.451646328E0,4.140827179E0,8.335448056E-2
1.507833422E1,1.284271598E0,3.760805130E0,3.264273405E-1
1.509822662E1,1.062503338E0,3.250159025E0,4.468652606E-1
1.511808511E1,8.258884549E-1,2.594042063E0,4.858128428E-1
1.513797865E1,7.939314842E-1,1.963490725E0,5.406723619E-1
1.515786969E1,8.312146664E-1,1.625612140E0,5.337483287E-1
1.517778225E1,7.886053324E-1,1.568022966E0,4.911389947E-1
1.519767016E1,7.198312283E-1,1.685797811E0,4.117125571E-1
1.521759792E1,6.313502789E-1,1.794518232E0,3.264273405E-1
1.523744990E1,5.455324650E-1,1.722082376E0,2.704360485E-1
1.525735277E1,5.028565526E-1,1.528609395E0,2.171743810E-1
1.527724199E1,5.359453559E-1,1.298319340E0,1.723680198E-1
1.529710136E1,5.524564981E-1,1.041931033E0,1.910761744E-1
1.531701152E1,5.194342732E-1,8.559147120E-1,2.006632686E-1
1.533688376E1,4.192357659E-1,6.725615263E-1,1.905435622E-1
1.535678824E1,3.008617461E-1,4.934692085E-1,1.430741102E-1
1.537667719E1,1.953371018E-1,3.101159632E-1,4.340824485E-2
1.539656147E1,8.129059523E-2,6.870753318E-2,-4.720313847E-2
1.541652162E1,-4.340824485E-2,-2.191051245E-1,-1.271621883E-1
1.543637370E1,-1.612496525E-1,-5.122439265E-1,-1.511299312E-1
1.545624808E1,-2.513284087E-1,-7.190988660E-1,-1.697715074E-1
1.547615506E1,-3.286243975E-1,-8.011884093E-1,-2.129800320E-1
1.549603141E1,-4.063864052E-1,-8.171668649E-1,-2.747635543E-1
1.551590709E1,-4.687691033E-1,-8.597761989E-1,-2.940043211E-1
1.553581188E1,-5.065848827E-1,-9.035173059E-1,-2.908086181E-1
1.555570365E1,-5.242277980E-1,-9.061804414E-1,-3.019935489E-1
1.557559423E1,-5.343475342E-1,-9.008542299E-1,-2.774266303E-1
1.559551350E1,-5.300865769E-1,-8.891366720E-1,-2.321542203E-1
1.561537730E1,-5.157059431E-1,-8.693633080E-1,-2.007298470E-1
1.563524975E1,-4.975304008E-1,-8.581783772E-1,-1.681736708E-1
1.565516506E1,-4.778235853E-1,-8.475260139E-1,-1.324883550E-1
1.567503719E1,-4.469318390E-1,-8.278192282E-1,-1.101184636E-1
1.569491344E1,-3.920057416E-1,-7.963948250E-1,-8.448629081E-2
1.571482303E1,-3.270265460E-1,-7.489253879E-1,-7.383396477E-2
1.573469897E1,-2.630459666E-1,-6.833469868E-1,-6.744256616E-2
1.575461225E1,-2.081198990E-1,-5.884746909E-1,-3.814865649E-2
1.577453105E1,-1.623148769E-1,-4.664389193E-1,-2.589847706E-2
1.579439532E1,-1.207042187E-1,-3.577185571E-1,-2.110492997E-2
1.581428048E1,-8.555153012E-2,-2.836183012E-1,1.944050193E-2
1.583415428E1,-5.998593569E-2,-2.025940120E-1,6.790860742E-2
1.585404235E1,-4.021254554E-2,-8.268871158E-2,1.148454323E-1
1.587396350E1,2.929390874E-3,5.645735189E-2,1.526612043E-1
1.589384188E1,6.318163127E-2,1.630472243E-1,1.691723168E-1
1.591374714E1,1.207042187E-1,2.467346042E-1,1.948044896E-1
1.593365454E1,1.782933772E-1,3.495961726E-1,2.475335300E-1
1.595355886E1,2.364151478E-1,4.854799509E-1,3.067205250E-1
1.597339558E1,2.992638946E-1,5.974625945E-1,3.610474169E-1
1.599331157E1,3.776251078E-1,6.800181270E-1,4.362129271E-1
1.601317495E1,4.708995819E-1,8.468602300E-1,5.390744805E-1
1.603307094E1,5.647066832E-1,1.070226312E0,6.654377580E-1
1.605295636E1,6.696987152E-1,1.254112124E0,8.365408182E-1
1.607284272E1,8.008555174E-1,1.416094184E0,1.074753523E0
1.609275266E1,9.106410742E-1,1.557903290E0,1.389263630E0
1.611264308E1,9.858065844E-1,1.660764813E0,1.712228894E0
1.613255162E1,1.080678940E0,1.707701683E0,1.990987062E0
1.615239522E1,1.184073091E0,1.651710391E0,2.175405502E0
1.617229917E1,1.309304595E0,1.433204412E0,2.287321568E0
1.619218136E1,1.525147438E0,8.959275484E-1,2.611418724E0
1.621210225E1,1.896647453E0,2.462019771E-1,3.164141655E0
1.623199214E1,2.494176626E0,-3.362141550E-2,3.714201212E0
1.625187652E1,3.132717133E0,7.563154399E-2,4.268521786E0
1.627173855E1,3.689700842E0,2.115153372E-1,4.819114208E0
1.629167105E1,4.180573463E0,1.065233052E-1,5.290279865E0
1.631155219E1,4.572845459E0,-1.748979539E-1,5.729422569E0
1.633147219E1,4.854799271E0,-3.001294136E-1,6.016768932E0
1.635136985E1,4.969445229E0,2.792242169E-1,5.905851841E0
1.637121725E1,4.964651585E0,1.727941155E0,5.189016342E0
1.639112214E1,4.759927273E0,3.132384300E0,4.079842567E0
1.641101365E1,4.311197758E0,3.548624039E0,2.938112497E0
1.643089756E1,3.998285532E0,2.892507076E0,1.997378469E0
1.645079537E1,3.766464233E0,1.370821714E0,1.315695882E0
1.647068219E1,1.992118955E0,6.539199352E-1,3.040574491E-1
1.649058152E1,-1.654706359E0,2.012025356E0,-2.285257816E0
1.651046839E1,-8.057089806E0,3.687237501E0,-5.951257229E0
1.653032870E1,-1.341907310E1,8.266208172E-1,-7.729331017E0
1.655024881E1,-1.544288254E1,-4.547213614E-1,-8.461146355E0
1.657012964E1,-1.565872574E1,6.928675175E-1,-8.007555962E0
1.659000443E1,-1.422232533E1,1.558435917E0,-7.398842335E0
1.660992412E1,-1.278266335E1,7.045850754E-1,-6.850447178E0
1.662980027E1,-1.038415813E1,4.497946501E-1,-6.890925884E0
1.664970860E1,-5.943201542E0,1.614493728E-1,-7.463355541E0
1.666961022E1,-2.387586594E0,-1.730204701E0,-6.185208797E0
1.668948365E1,-9.149020314E-1,-2.559555292E0,-4.483898640E0
1.670934938E1,2.235657871E-1,-1.930069089E0,-3.825651169E0
1.672925600E1,1.633401632E0,-1.627809167E0,-3.045301437E0
1.674913334E1,3.063943148E0,-1.494055867E0,-2.359358072E0
1.676903636E1,3.785638332E0,-9.370721579E-1,-2.053436279E0
1.678893162E1,3.927381039E0,-1.274285018E-1,-1.939855933E0
1.680882193E1,3.882108688E0,3.149760962E-1,-2.049175501E0
1.682870402E1,3.768062115E0,3.629115820E-1,-2.099241495E0
1.684861402E1,3.544163465E0,6.049191952E-1,-2.136058569E0
1.686851527E1,3.324592352E0,1.149120092E0,-2.133395433E0
1.688836178E1,3.153489113E0,1.538729072E0,-1.923344851E0
1.690825542E1,2.654094696E0,1.611231565E0,-1.493256927E0
1.692815938E1,2.044847965E0,1.889989734E0,-1.220357537E0
1.694804928E1,1.709033251E0,2.360622883E0,-1.123354793E0
1.696792157E1,1.422285795E0,2.622270823E0,-1.012969971E0
1.698783912E1,9.767521024E-1,2.525800705E0,-7.667680383E-1
1.700771907E1,4.213662446E-1,2.194313526E0,-4.688356817E-1
1.702764428E1,-1.890788600E-2,1.967751741E0,-2.518610358E-1
1.704753016E1,-2.054568231E-1,2.058363199E0,-1.010639817E-1
1.706739334E1,-2.891441882E-1,2.283327103E0,-5.732285231E-2
1.708727001E1,-2.827527821E-1,2.351035833E0,-4.294220731E-2
1.710720172E1,-2.198374718E-1,2.167682648E0,9.853405878E-3
1.712708558E1,-1.228346825E-1,1.865422726E0,2.929390874E-3
1.714697079E1,7.436657697E-2,1.646384239E0,2.396774245E-3
1.716685235E1,3.109814525E-1,1.730604172E0,2.050573565E-2
1.718673990E1,5.524564981E-1,1.834530950E0,5.459319428E-2
1.720664022E1,7.411358953E-1,1.527011514E0,6.737598777E-2
1.722656063E1,8.003228903E-1,9.603741765E-1,5.885412544E-2
1.724639949E1,7.294183373E-1,5.505257249E-1,8.548495173E-2
1.726632214E1,5.849460959E-1,4.033904374E-1,1.430741102E-1
1.728621548E1,4.042559266E-1,3.900750279E-1,1.542590559E-1
1.730609183E1,2.118482143E-1,3.847488463E-1,1.121823564E-1
1.732595860E1,5.252930522E-2,2.850829959E-1,9.886693954E-2
1.734586772E1,-1.624480449E-2,1.177082509E-1,7.802832127E-2
1.736575188E1,-2.956021577E-2,-9.121058136E-2,3.115806542E-2
1.738567287E1,-6.637733430E-2,-3.417400718E-1,-9.387366474E-3
1.740555068E1,-1.521951705E-1,-5.378761292E-1,-1.151783206E-2
1.742546475E1,-2.571871877E-1,-5.586481690E-1,-6.850779802E-2
1.744530329E1,-3.392767310E-1,-6.220960617E-1,-1.047922969E-1
1.746521897E1,-3.967992961E-1,-8.102428913E-1,-8.821461350E-2
1.748508292E1,-4.453339875E-1,-9.653008580E-1,-9.840089828E-2
1.750497907E1,-4.906063974E-1,-1.034607530E0,-1.122489274E-1
1.752487074E1,-5.183690190E-1,-1.080479145E0,-1.069227681E-1
1.754477146E1,-5.391410589E-1,-1.161436915E0,-1.181077138E-1
1.756467027E1,-5.652392507E-1,-1.239798069E0,-1.452711523E-1
1.758455725E1,-6.073825359E-1,-1.248852611E0,-1.959362924E-1
1.760447662E1,-6.595789790E-1,-1.217960835E0,-2.555893362E-1
1.762432610E1,-7.086462975E-1,-1.256309152E0,-2.710352242E-1
1.764421657E1,-7.299509048E-1,-1.370954871E0,-2.529262602E-1
1.766410178E1,-7.342118621E-1,-1.446653008E0,-2.438717782E-1
1.768402339E1,-7.384728193E-1,-1.436999321E0,-2.555893362E-1
1.770389287E1,-7.491251230E-1,-1.363498211E0,-2.934716940E-1
1.772379022E1,-7.427337170E-1,-1.293658972E0,-3.296896219E-1
1.774368360E1,-7.192986012E-1,-1.280876160E0,-3.217003644E-1
1.776357964E1,-6.851445436E-1,-1.271288991E0,-2.865476906E-1
1.778347740E1,-6.627746820E-1,-1.208373666E0,-2.603828907E-1
1.780335287E1,-6.531875730E-1,-1.106577396E0,-2.412087023E-1
1.782325162E1,-6.457309723E-1,-9.919982553E-1,-2.028603107E-1
1.784313605E1,-6.228284240E-1,-8.315475583E-1,-1.388797611E-1
1.786304152E1,-5.721632838E-1,-6.173025370E-1,-6.584471464E-2
1.788290803E1,-5.167711973E-1,-4.477973282E-1,1.198387146E-2
1.790282725E1,-4.847475886E-1,-3.513271809E-1,7.909355313E-2
1.792268844E1,-4.272250235E-1,-2.143115699E-1,1.547916681E-1
1.794258870E1,-3.173728585E-1,4.473978654E-2,2.581858635E-1
1.796251266E1,-1.564560980E-1,4.199681282E-1,3.653083444E-1
1.798237053E1,2.849498391E-2,8.730250597E-1,4.569849670E-1
1.800224542E1,2.454696298E-1,1.337266922E0,5.417375565E-1
1.802213834E1,5.076501369E-1,1.723147511E0,6.521223187E-1
1.804201876E1,8.147035241E-1,1.993383884E0,7.853430510E-1
1.806192068E1,1.134473205E0,2.127669811E0,9.415328503E-1
1.808183933E1,1.428677201E0,2.160691977E0,1.067829490E0
1.810171261E1,1.683467627E0,2.108495712E0,1.148853779E0
1.812162292E1,1.944116831E0,1.980001926E0,1.209638715E0
1.814151751E1,2.143981218E0,1.827074409E0,1.295456529E0
1.816135589E1,2.222342491E0,1.758832932E0,1.435601234E0
1.818126141E1,2.232462168E0,1.875009894E0,1.568821907E0
1.820114740E1,2.223940134E0,1.840389729E0,1.677608848E0
1.822103646E1,2.166883707E0,1.241329312E0,2.025074482E0
1.824092407E1,2.101904392E0,2.296908647E-1,2.598635912E0
1.826081923E1,2.187189817E0,-7.281533480E-1,3.045767546E0
1.828071870E1,2.521339893E0,-1.178014517E0,3.460476160E0
1.830060412E1,3.220665455E0,-1.155578136E0,4.036101341E0
1.832052063E1,3.867195368E0,-9.434635639E-1,4.763123035E0
1.834040402E1,4.407135487E0,-8.294170499E-1,5.448000908E0
1.836030761E1,5.064317703E0,-6.993255019E-1,6.042867184E0
1.838020438E1,5.513113499E0,-1.428743750E-1,6.596655369E0
1.840009298E1,5.009391308E0,1.479009509E0,6.701647282E0
1.841997881E1,3.732842922E0,4.276710987E0,5.590875626E0
1.843986558E1,2.092317343E0,6.100656033E0,3.865530968E0
1.845977141E1,6.473287940E-1,5.108191967E0,2.319345236E0
1.847966329E1,-1.224551916E0,2.743307829E0,7.682993412E-1
1.849957657E1,-4.884692669E0,2.964476824E0,-1.846048832E0
1.851940818E1,-1.152429008E1,6.511569977E0,-6.067966938E0
1.853932699E1,-1.534801102E1,5.173237801E0,-8.502690315E0
1.855921089E1,-1.545832920E1,3.676052570E0,-9.855469704E0
1.857910542E1,-1.337220287E1,2.557824135E0,-9.094893456E0
1.859899808E1,-1.004574680E1,1.323352337E0,-8.777187347E0
1.861888204E1,-8.063481331E0,-2.004635334E-1,-8.175463676E0
1.863874396E1,-5.437948227E0,-1.643321633E0,-6.478947163E0
1.865866985E1,-3.530315399E0,-2.062757254E0,-5.063785076E0
1.867853615E1,-1.981400013E0,-1.730204701E0,-3.775518656E0
1.869843548E1,-1.127016544E0,-9.978570342E-1,-3.083716393E0
1.871834568E1,5.592473317E-3,-4.706998467E-1,-2.857154608E0
1.873822725E1,1.291195631E0,-2.793573737E-1,-2.391847610E0
1.875811667E1,1.910029411E0,-1.637129933E-1,-1.967618585E0
1.877801714E1,1.937725425E0,-1.962026060E-1,-1.897779226E0
1.879787808E1,2.143981218E0,-2.308226824E-1,-1.951107383E0
1.881778730E1,2.545907021E0,1.800909638E-1,-1.843918324E0
1.883769839E1,2.714280367E0,1.144260049E0,-1.690990806E0
1.885757381E1,2.695638657E0,1.881933808E0,-1.689925671E0
1.887746501E1,2.763347626E0,1.783333182E0,-1.494322181E0
1.889734329E1,2.810217857E0,1.379343629E0,-1.052982807E0
1.891725490E1,2.758553982E0,1.594653845E0,-8.178992271E-1
1.893711542E1,2.641311884E0,2.319012403E0,-6.286872029E-1
1.895701350E1,2.544775009E0,3.035914183E0,-2.838846147E-1
1.897692657E1,2.487252474E0,3.581712961E0,-3.921389207E-2
1.899679344E1,2.278333664E0,3.933506012E0,3.754946589E-2
1.901668292E1,2.005966902E0,4.028911114E0,1.792920381E-1
1.903656777E1,1.767155051E0,3.866862535E0,3.967992961E-1
1.905653558E1,1.662695646E0,3.625387430E0,5.689675808E-1
1.907635303E1,1.654706359E0,3.314139605E0,6.057181358E-1
1.909624298E1,1.532137990E0,2.816875696E0,5.785546899E-1
1.911613407E1,1.338065863E0,2.241716385E0,5.801525116E-1
1.913601443E1,1.182475209E0,1.864357471E0,5.518572927E-1
1.915591360E1,1.107842326E0,1.824943900E0,4.521914124E-1
1.917582272E1,1.059307694E0,2.020547390E0,3.861469626E-1
1.919568662E1,9.516525269E-1,2.217216015E0,3.834838867E-1
1.921560808E1,7.848104239E-1,2.187922001E0,3.482646346E-1
1.923552824E1,6.398721337E-1,1.909163833E0,2.438052148E-1
1.925536917E1,5.801525116E-1,1.529674649E0,1.079214215E-1
1.927530074E1,5.274235010E-1,1.139999032E0,-2.110492997E-2
1.929517975E1,4.352142811E-1,8.330122232E-1,-7.969274372E-2
1.931505308E1,2.790244818E-1,5.744934678E-1,-9.307473898E-2
1.933492949E1,1.265629977E-1,3.693029881E-1,-1.266295761E-1
1.935484766E1,-7.190322969E-3,2.621804774E-1,-1.628475040E-1
1.937470011E1,-1.233673021E-1,1.203713343E-1,-1.798912287E-1
1.939462266E1,-2.011958808E-1,-1.567889899E-1,-1.804238409E-1
1.941450100E1,-2.412087023E-1,-5.021241903E-1,-1.713693589E-1
1.943438563E1,-2.683721483E-1,-7.052508593E-1,-1.729672104E-1
1.945427995E1,-3.019269705E-1,-7.196314931E-1,-1.906101406E-1
1.947417574E1,-3.264939189E-1,-7.169684172E-1,-2.246975899E-1
1.949408282E1,-3.568530679E-1,-8.613740802E-1,-2.145778835E-1
1.951394386E1,-3.978645205E-1,-1.006911516E0,-1.964689195E-1
1.953384449E1,-4.479970634E-1,-1.013302922E0,-2.241649777E-1
1.955375829E1,-4.890085459E-1,-1.038868546E0,-2.220345140E-1
1.957367522E1,-5.076501369E-1,-1.138001800E0,-2.113821805E-1
1.959357016E1,-5.173037648E-1,-1.209971547E0,-2.262954414E-1
1.961339235E1,-5.359453559E-1,-1.196656108E0,-2.385456264E-1
1.963329209E1,-5.593804717E-1,-1.138534427E0,-2.657090724E-1
1.965321381E1,-5.716306567E-1,-1.126816750E0,-2.774266303E-1
1.967309032E1,-5.631088018E-1,-1.166296959E0,-2.614481449E-1
1.969296886E1,-5.391410589E-1,-1.189199567E0,-2.571871877E-1
1.971286641E1,-5.322170258E-1,-1.151849747E0,-2.539914846E-1
1.973274428E1,-5.343475342E-1,-1.107642651E0,-2.177735716E-1
1.975262777E1,-5.236951709E-1,-1.116697073E0,-1.750976741E-1
1.977256860E1,-4.985956252E-1,-1.126816750E0,-1.740324497E-1
1.979243943E1,-4.661060274E-1,-1.068695068E0,-2.001972347E-1
1.981232396E1,-4.325511754E-1,-9.530506730E-1,-2.348173112E-1
1.983221068E1,-4.095821083E-1,-8.240908980E-1,-2.539914846E-1
1.985211881E1,-3.888100684E-1,-7.467949390E-1,-2.417413145E-1
1.987199511E1,-3.664401472E-1,-7.478601336E-1,-1.980667710E-1
1.989190079E1,-3.472659588E-1,-7.382730842E-1,-1.607170254E-1
1.991176808E1,-3.195033371E-1,-6.412702799E-1,-1.484668553E-1
1.993166089E1,-2.854158878E-1,-4.994611442E-1,-1.197055578E-1
1.995156100E1,-2.614481449E-1,-3.742296696E-1,-6.105116755E-2
1.997145209E1,-2.417413145E-1,-2.458025217E-1,4.527240526E-3
1.999132469E1,-2.118482143E-1,-5.386084318E-2,7.003907114E-2
2.001124016E1,-1.660431921E-1,2.163088769E-1,1.207042187E-1
2.003111001E1,-1.302913129E-1,4.854799509E-1,1.755637228E-1
2.005099053E1,-9.993217140E-2,6.907370687E-1,2.485987544E-1
2.007087245E1,-4.933360592E-2,8.559147120E-1,3.376123011E-1
2.009075803E1,4.773575440E-2,1.012104511E0,4.394086301E-1
2.011064949E1,1.836195439E-1,1.154446244E0,5.289547443E-1
2.013055126E1,3.254286945E-1,1.270623207E0,6.099790335E-1
2.015046376E1,4.842149913E-1,1.379876256E0,6.989926100E-1
2.017036100E1,6.862097979E-1,1.513096929E0,7.826799750E-1
2.019022949E1,9.330109954E-1,1.669819355E0,8.695630431E-1
2.021013475E1,1.182475209E0,1.814824224E0,9.633701444E-1
2.023000449E1,1.375415564E0,1.871814132E0,1.086471081E0
2.024988912E1,1.486799002E0,1.778539658E0,1.269824386E0
2.026979865E1,1.535333633E0,1.310036898E0,1.541658521E0
2.028968490E1,1.506505847E0,4.710993171E-1,1.914223790E0
2.030958350E1,1.511831999E0,-4.184368551E-1,2.277734518E0
2.032952824E1,1.578475595E0,-1.422618747E0,2.571405888E0
2.034937808E1,1.936127543E0,-2.310623646E0,3.102823973E0
2.036926673E1,2.615147114E0,-2.770604610E0,3.745093107E0
2.038913303E1,3.311276913E0,-2.800963640E0,4.346816540E0
2.040905079E1,4.054809570E0,-2.596838474E0,4.895278454E0
2.042894256E1,4.862855434E0,-2.269545555E0,5.432555199E0
2.044884548E1,5.459785461E0,-1.810629845E0,6.047128201E0
2.046870355E1,5.498666286E0,-8.006557822E-1,6.385605812E0
2.048858485E1,4.804733753E0,1.426280499E0,5.821631432E0
2.050852292E1,3.739766836E0,4.493153095E0,4.472114563E0
2.052840152E1,2.600766420E0,6.466829777E0,3.124128819E0
2.054825730E1,1.654173732E0,6.088938713E0,2.228733778E0
2.056815511E1,8.748891950E-1,4.836890221E0,9.137701988E-1
2.058803506E1,-1.605639100E0,4.940816879E0,-1.753839612E0
2.060795422E1,-5.422502041E0,5.095941544E0,-6.193198204E0
2.062784308E1,-1.093688107E1,2.125539303E0,-9.730237961E0
2.064771803E1,-1.301135540E1,-6.141068339E-1,-1.019980621E1
2.066763006E1,-1.294843960E1,3.927381039E-1,-8.520865440E0
2.068755542E1,-1.236482525E1,2.249172926E0,-5.984811783E0
2.070741199E1,-1.118474674E1,4.326310635E0,-4.982227802E0
2.072729756E1,-8.315075874E0,5.480757236E0,-5.980551243E0
2.074719912E1,-4.690687180E0,3.304552555E0,-6.240135193E0
2.076707891E1,-3.255285501E0,4.101147130E-2,-5.098471642E0
2.078697313E1,-2.255364656E0,-1.418357730E0,-4.651805878E0
2.080686016E1,-1.280543208E0,-1.695518136E0,-4.483366013E0
2.082673980E1,1.198387146E-2,-2.046246052E0,-3.848553658E0
2.084662183E1,1.121157765E0,-2.421474457E0,-2.990974665E0
2.086659412E1,1.798579335E0,-2.221610069E0,-2.178667784E0
2.088640152E1,2.353965282E0,-1.172688365E0,-1.626477718E0
2.090629157E1,2.909883738E0,2.302234918E-1,-1.541725039E0
2.092620672E1,3.350157976E0,9.188300371E-1,-1.467092156E0
2.094608683E1,3.670526743E0,6.432675719E-1,-9.676976204E-1
2.096599360E1,3.833041191E0,3.964664042E-1,-6.377416849E-1
2.098587251E1,3.802682161E0,7.930659652E-1,-6.467961669E-1
2.100575001E1,3.669461489E0,1.348451853E0,-6.697652340E-1
2.102569370E1,3.597491741E0,1.582403660E0,-5.013253093E-1
2.104559480E1,3.483445168E0,1.616025090E0,-2.747635543E-1
2.106543511E1,3.026127338E0,1.771082997E0,-1.303578913E-1
2.108532667E1,2.593842506E0,1.970947385E0,-1.276948154E-1
2.110521063E1,2.448304892E0,1.850509524E0,-1.895449013E-1
2.112511839E1,2.316682100E0,1.459302664E0,-1.938058287E-1
2.114498334E1,2.138122320E0,1.284471273E0,-1.101184636E-1
2.116489464E1,1.938790679E0,1.564827323E0,-7.969274372E-2
2.118478303E1,1.749578714E0,2.102104187E0,-1.383471340E-1
2.120468673E1,1.551312208E0,2.505561113E0,-1.149120107E-1
2.122459313E1,1.307706714E0,2.728394747E0,-1.418091450E-2
2.124447100E1,1.138201475E0,2.855223894E0,7.376738638E-2
2.126432678E1,9.969915152E-1,2.929324150E0,8.122401685E-2
2.128421954E1,8.738239408E-1,2.837115049E0,4.820179567E-2
2.130411896E1,7.752233148E-1,2.507691622E0,6.631075591E-2
2.132402860E1,6.750248671E-1,1.954436302E0,1.489328891E-1
2.134389542E1,5.721632838E-1,1.394789457E0,2.113156021E-1
2.136379511E1,4.799540639E-1,1.005713105E0,2.033263594E-1
2.138372079E1,3.717663288E-1,5.942668915E-1,1.921414137E-1
2.140359516E1,2.848832607E-1,1.396121085E-1,1.942718774E-1
2.142351136E1,1.841521561E-1,-1.242327988E-1,1.654440016E-1
2.144334886E1,8.182321489E-2,-1.557237506E-1,7.323476672E-2
2.146325896E1,-9.853405878E-3,-1.796914935E-1,-6.318163127E-2
2.148315022E1,-1.009974033E-1,-3.470662236E-1,-1.292926520E-1
2.150301646E1,-1.857500076E-1,-5.479958057E-1,-1.399449855E-1
2.152293407E1,-2.667742968E-1,-6.838796139E-1,-1.553908736E-1
2.154280792E1,-3.424724042E-1,-7.606429458E-1,-1.798912287E-1
2.156271855E1,-4.010602236E-1,-8.081123829E-1,-2.023276985E-1
2.158260683E1,-4.533232152E-1,-8.730916381E-1,-2.049907744E-1
2.160251464E1,-4.932694733E-1,-9.567790031E-1,-1.980667710E-1
2.162235402E1,-5.268908739E-1,-1.039933681E0,-1.719019860E-1
2.164226105E1,-5.481955409E-1,-1.083674908E0,-1.548582464E-1
2.166218350E1,-5.769568086E-1,-1.081011772E0,-1.804238409E-1
2.168206318E1,-6.036542654E-1,-1.095925093E0,-1.980667710E-1
2.170195298E1,-6.159043908E-1,-1.123621106E0,-2.049907744E-1
2.172183829E1,-5.961310267E-1,-1.104446888E0,-2.630459666E-1
2.174172068E1,-5.599130988E-1,-1.078348756E0,-3.003957272E-1
2.176162574E1,-5.332822800E-1,-1.028748751E0,-2.812215090E-1
2.178151772E1,-5.130428672E-1,-9.301481843E-1,-2.689047754E-1
2.180140152E1,-4.794214368E-1,-8.448629379E-1,-2.454696298E-1
2.182128699E1,-4.266923964E-1,-8.033188581E-1,-2.225671262E-1
2.184119912E1,-3.722989559E-1,-7.585124969E-1,-2.151104957E-1
2.186104553E1,-3.205685616E-1,-6.796186566E-1,-1.863491982E-1
2.188097058E1,-2.545241117E-1,-5.575829148E-1,-1.511299312E-1
2.190083761E1,-1.830869317E-1,-4.403406978E-1,-1.420754492E-1
2.192075839E1,-1.270956099E-1,-3.784905970E-1,-1.383471340E-1
2.194062001E1,-9.354077280E-2,-3.465336263E-1,-1.197055578E-1
2.196051120E1,-6.371425092E-2,-2.932053804E-1,-8.555153012E-2
2.198039396E1,-2.956021577E-2,-2.169746459E-1,-2.856156044E-2
2.200031923E1,1.304910425E-2,-1.311568171E-1,1.198387146E-2
2.202018480E1,6.158378348E-2,-6.457975507E-2,5.139749497E-2
2.204006688E1,1.132475883E-1,-6.671021879E-2,1.223020703E-1
2.205996688E1,1.766955256E-1,-1.444722265E-1,2.107829899E-1
2.207984975E1,2.646438181E-1,-2.830856740E-1,3.392101526E-1
2.209975495E1,4.165726900E-1,-4.994611442E-1,5.860112906E-1
2.211965464E1,6.521223187E-1,-8.166342378E-1,9.915987849E-1
2.213956725E1,8.722261190E-1,-1.149186730E0,1.436133862E0
2.215940646E1,1.120092511E0,-9.019194841E-1,1.558702230E0
2.217931834E1,1.504375339E0,-2.083862014E-2,1.493723035E0
2.219920365E1,1.923344851E0,6.857437547E-3,1.982465267E0
2.221909855E1,2.035260916E0,-1.086337924E0,2.424337149E0
2.223898688E1,2.185059309E0,-2.018549919E0,2.470142126E0
2.225888131E1,2.812880993E0,-1.927938581E0,2.788380623E0
2.227874167E1,3.620926857E0,-1.175884128E0,3.451954126E0
2.229864761E1,4.490822792E0,1.011971384E-1,3.834639072E0
2.231855287E1,5.186885834E0,1.136803389E0,4.060069084E0
2.233843699E1,5.697532177E0,1.372952223E0,4.648011208E0
2.235834506E1,6.100988865E0,1.304178119E0,5.492274761E0
2.237823464E1,6.462902069E0,1.767887354E0,5.993799686E0
2.239812199E1,6.187871933E0,2.667077065E0,5.914906025E0
2.241801256E1,4.950204372E0,3.629115820E0,5.122372627E0
2.243787735E1,3.013344526E0,4.509131432E0,3.714733839E0
2.245779272E1,8.354755640E-1,5.061854362E0,2.006965637E0
2.247770777E1,-1.081211567E0,5.007460594E0,-6.264901906E-2
2.249759574E1,-3.690233469E0,4.681299686E0,-2.206363916E0
2.251747506E1,-7.326339722E0,4.988819122E0,-3.929045439E0
2.253736923E1,-1.082336712E1,5.870432854E0,-5.628757954E0
2.255723949E1,-1.248473072E1,5.973826885E0,-6.900513172E0
2.257712745E1,-1.217401600E1,5.333155632E0,-7.210695267E0
2.259702324E1,-1.172735023E1,3.827382326E0,-6.641993999E0
2.261691745E1,-1.151303864E1,2.577531099E0,-6.320094109E0
2.263680162E1,-1.019334793E1,2.375003576E0,-6.362703323E0
2.265668902E1,-7.511823654E0,2.207628965E0,-6.402716160E0
2.267657714E1,-4.818048954E0,1.335669041E0,-6.148458481E0
2.269646579E1,-2.909351110E0,2.869471535E-2,-5.281291962E0
2.271636662E1,-1.323685169E0,-8.539174199E-1,-4.047352791E0
2.273625209E1,4.405404329E-1,-2.732722282E0,-2.265018225E0
2.275614709E1,2.097643614E0,-3.990096569E0,-2.086458683E0
2.277605798E1,2.897633553E0,-1.671017766E0,-3.033051252E0
2.279594089E1,4.196552277E0,-4.019257426E-1,-1.660032511E0
2.281581126E1,4.851603985E0,6.033213735E-1,-7.758225203E-1
2.283571178E1,5.018445969E0,2.426134825E0,-1.374882936E0
2.285562022E1,5.031228542E0,3.445230007E0,-1.496452689E0
2.287556350E1,5.176766396E0,2.957552910E0,-1.204379082E0
2.289539672E1,5.034956932E0,1.823346019E0,-1.123354793E0
2.291528949E1,4.650141716E0,1.125618458E0,-1.315229893E0
2.293518407E1,4.379905224E0,1.144260049E0,-1.498050570E0
2.295505959E1,4.221651554E0,1.536066055E0,-1.493789554E0
2.297495266E1,3.901282787E0,2.048775911E0,-1.485267758E0
2.299483391E1,3.375723362E0,2.549302340E0,-1.485267758E0
2.301471678E1,2.825197697E0,2.926661253E0,-1.406906486E0
2.303463339E1,2.346508503E0,3.056686163E0,-1.162768364E0
2.305453115E1,1.902040124E0,3.094035864E0,-8.568468094E-1
2.307441094E1,1.508636236E0,3.243235111E0,-6.750914454E-1
2.309427584E1,1.179279566E0,3.333846569E0,-5.354127288E-1
2.311418782E1,9.212934375E-1,3.227789164E0,-4.139096141E-1
2.313407391E1,7.437989712E-1,2.987379551E0,-3.142437339E-1
2.315397027E1,6.292198300E-1,2.745970964E0,-1.970015317E-1
2.317384605E1,5.439345837E-1,2.648435593E0,-1.287600398E-1
2.319377136E1,4.661060274E-1,2.689447165E0,-1.154446304E-1
2.321367303E1,3.866795897E-1,2.559422016E0,-7.170350105E-2
2.323357766E1,3.376788795E-1,2.125539303E0,9.853405878E-3
2.325342772E1,3.477985859E-1,1.469422340E0,6.737598777E-2
2.327331615E1,3.936035931E-1,7.445313334E-1,8.069140464E-2
2.329322360E1,3.914731443E-1,2.541912198E-1,9.886693954E-2
2.331309532E1,3.013943732E-1,1.763626486E-1,1.340196282E-1
2.333298886E1,1.318891644E-1,2.893439233E-1,8.388710022E-2
2.335288620E1,-1.304910425E-2,2.216350436E-1,-7.010564953E-2
2.337276949E1,-7.862751186E-2,-1.252980381E-1,-1.596518010E-1
2.339266886E1,-1.020626426E-1,-5.378761292E-1,-1.788259894E-1
2.341255824E1,-1.468690038E-1,-7.542515397E-1,-1.948710680E-1
2.343244605E1,-2.304897904E-1,-7.334794998E-1,-2.001972347E-1
2.345234120E1,-3.040574491E-1,-6.636402011E-1,-2.033929378E-1
2.347222360E1,-3.264939189E-1,-7.435992360E-1,-1.863491982E-1
2.349216272E1,-3.157750070E-1,-9.013868570E-1,-1.628475040E-1
2.351200219E1,-3.029922247E-1,-9.637029767E-1,-1.868818253E-1
2.353188235E1,-2.944703400E-1,-9.397352338E-1,-2.140452564E-1
2.355178511E1,-3.008617461E-1,-9.290829301E-1,-2.156431079E-1
2.357166636E1,-3.141771555E-1,-9.408004880E-1,-2.310889959E-1
2.359156115E1,-3.403419554E-1,-9.994548559E-1,-2.523936629E-1
2.361145022E1,-3.722989559E-1,-1.089001060E0,-2.801562846E-1
2.363136068E1,-3.967992961E-1,-1.136936545E0,-3.248960674E-1
2.365123740E1,-4.138430357E-1,-1.107110023E0,-3.579182923E-1
2.367112475E1,-4.224314690E-1,-1.001052737E0,-3.573856652E-1
2.369100949E1,-4.037233293E-1,-8.651023507E-1,-3.718329072E-1
2.371088313E1,-3.627118468E-1,-8.443303108E-1,-3.659075499E-1
2.373080115E1,-3.286243975E-1,-9.093761444E-1,-3.499290347E-1
2.375070193E1,-3.243634701E-1,-9.120392203E-1,-3.264939189E-1
2.377057990E1,-3.462007344E-1,-8.235582709E-1,-2.918738425E-1
2.379048193E1,-3.770924807E-1,-7.483927608E-1,-2.646438181E-1
2.381036261E1,-4.117125571E-1,-7.356100082E-1,-2.310889959E-1
2.383028001E1,-4.373447299E-1,-6.705641747E-1,-1.788259894E-1
2.385014548E1,-4.448013604E-1,-4.717650712E-1,-1.229012609E-1
2.387003344E1,-4.330838025E-1,-2.286922187E-1,-8.235582709E-2
2.388991329E1,-3.936035931E-1,-7.842778414E-2,-6.158378348E-2
2.390981594E1,-3.221664131E-1,-4.327509087E-3,-2.110492997E-2
2.392974376E1,-2.177069932E-1,1.139799356E-1,6.311506033E-2
2.394961313E1,-8.501891047E-2,2.696371078E-1,1.964023411E-1
2.396951048E1,7.436657697E-2,3.911402524E-1,3.728315532E-1
2.398939324E1,2.353499234E-1,4.684362113E-1,5.726959109E-1
2.400927074E1,3.983971477E-1,5.595802069E-1,7.789516449E-1
2.402914157E1,5.503259897E-1,7.381399274E-1,1.032676816E0
2.404902178E1,7.027874589E-1,9.087103605E-1,1.376414180E0
2.406894350E1,8.152361512E-1,7.792179585E-1,1.788992286E0
2.408881136E1,9.532504082E-1,2.845503688E-1,2.168481588E0
2.410869636E1,1.183007836E0,-2.238986641E-1,2.432859182E0
2.412862787E1,1.460700750E0,-5.756918788E-1,2.570873260E0
2.414852980E1,1.808233023E0,-1.011705041E0,2.964809895E0
2.416837167E1,2.253234148E0,-1.270223856E0,3.479117632E0
2.418829120E1,2.858752489E0,-1.341594458E0,3.951348782E0
2.420816240E1,3.531380653E0,-1.877273440E0,4.652272224E0
2.422804751E1,4.051081181E0,-2.944370747E0,5.565842628E0
2.424795475E1,4.443885803E0,-3.785971403E0,6.285873413E0
2.426785943E1,4.753535748E0,-3.508278370E0,6.658438683E0
2.428773344E1,4.969977856E0,-1.303778648E0,6.639264584E0
2.430765209E1,5.080828667E0,2.972998857E0,6.243796825E0
2.432756001E1,5.026968002E0,7.515219212E0,5.738543510E0
2.434743433E1,4.794081211E0,9.754405022E0,5.198071003E0
2.436731766E1,4.541421413E0,8.667601585E0,4.560062885E0
2.438721172E1,4.629369736E0,4.906729698E0,3.493498325E0
2.440706454E1,4.624043465E0,1.275416851E0,1.158973575E0
2.442697126E1,2.094447851E0,2.160159349E0,-3.338506937E0
2.444687850E1,-3.489303827E0,5.348069191E0,-8.367339134E0
2.446677256E1,-1.011551952E1,2.487984896E0,-1.087509727E1
2.448664829E1,-1.313924980E1,-1.197188735E0,-1.112722397E1
2.450659094E1,-1.321068668E1,-7.649039030E-1,-9.786695480E0
2.452646761E1,-1.253426456E1,7.829462886E-1,-8.427058220E0
2.454631433E1,-1.114899540E1,7.226940393E-1,-6.511969090E0
2.456623443E1,-8.542103767E0,4.982627332E-1,-5.602659702E0
2.458608907E1,-5.807850361E0,3.029256500E-2,-5.066448212E0
2.460599693E1,-4.384166241E0,-8.752220869E-1,-4.361863136E0
2.462587287E1,-3.173728704E0,-1.596917510E0,-3.929578066E0
2.464577980E1,-1.620618939E0,-1.871414661E0,-3.718528748E0
2.466567495E1,-1.942718774E-1,-1.773879290E0,-3.452553272E0
2.468559225E1,6.830140948E-1,-1.257374406E0,-2.954157591E0
2.470546756E1,1.061970711E0,-2.900096774E-1,-2.772402048E0
2.472533475E1,1.662695646E0,5.276232362E-1,-2.892374039E0
2.474523907E1,2.715345621E0,1.222621202E0,-2.748434305E0
2.476511579E1,3.879978180E0,2.408025742E0,-2.056632042E0
2.478500876E1,4.793548584E0,3.884971380E0,-1.399449944E0
2.480489032E1,4.922508240E0,4.432367802E0,-1.551312208E0
2.482479480E1,4.696012974E0,3.444697380E0,-1.156909585E0
2.484467902E1,4.468386173E0,2.695305824E0,-4.858794212E-1
2.486456876E1,4.309599876E0,2.802960873E0,-4.864120185E-1
2.488448652E1,3.923652649E0,2.745970964E0,-5.204994678E-1
2.490434251E1,3.289972305E0,2.532191992E0,-3.477985859E-1
2.492424485E1,2.716943502E0,2.653761864E0,-3.691032529E-1
2.494413365E1,2.310290813E0,2.899963856E0,-4.683030546E-1
2.496401459E1,1.993184090E0,2.918671846E0,-4.736292362E-1
2.498391219E1,1.676543593E0,2.786449909E0,-4.575841725E-1
2.500380235E1,1.370622039E0,2.653761864E0,-5.125102401E-1
2.502372548E1,1.146190763E0,2.584455013E0,-5.743603110E-1
2.504363115E1,1.058775067E0,2.655359507E0,-5.748929381E-1
2.506352449E1,1.033209443E0,2.733188152E0,-5.231625438E-1
2.508338282E1,9.489894509E-1,2.649500847E0,-4.474644363E-1
2.510329360E1,8.024533391E-1,2.502365589E0,-3.669727743E-1
2.512315079E1,6.659703851E-1,2.400569201E0,-2.300237566E-1
2.514308152E1,6.036542654E-1,2.362753391E0,-4.187697172E-2
2.516295891E1,5.588479042E-1,2.248107672E0,1.361500919E-1
2.518283995E1,4.810192883E-1,1.975208282E0,2.406095117E-1
2.520273985E1,3.733641803E-1,1.562164187E0,2.464682907E-1
2.522260933E1,2.321542203E-1,1.021691680E0,2.746969759E-1
2.524252485E1,1.532603949E-1,4.316856861E-1,3.131119311E-1
2.526241672E1,6.744256616E-2,-7.842778414E-2,3.205685616E-1
2.528227647E1,-1.038602181E-2,-3.667730391E-1,2.384790480E-1
2.530218459E1,-1.068561897E-1,-5.549198389E-1,1.601178348E-1
2.532207240E1,-1.878804713E-1,-7.265555263E-1,1.153780520E-1
2.534195964E1,-2.304897904E-1,-8.517869711E-1,7.722939365E-3
2.536183756E1,-2.779592276E-1,-1.029281378E0,-8.235582709E-2
2.538175714E1,-3.557878435E-1,-1.273952127E0,-1.197055578E-1
2.540163001E1,-4.309533238E-1,-1.472218633E0,-1.543256342E-1
2.542154808E1,-4.900737703E-1,-1.518556237E0,-2.028603107E-1
2.544144303E1,-5.561847687E-1,-1.424749136E0,-2.571871877E-1
2.546129933E1,-6.238936782E-1,-1.350648880E0,-3.030588031E-1
2.548121058E1,-6.942656040E-1,-1.415162086E0,-3.025261760E-1
2.550108949E1,-7.608426809E-1,-1.508969188E0,-3.296896219E-1
2.552098725E1,-8.045838475E-1,-1.598515272E0,-4.453339875E-1
2.554085605E1,-8.413343430E-1,-1.713627100E0,-5.449998379E-1
2.556078048E1,-8.834776282E-1,-1.720551014E0,-5.972628593E-1
2.558065209E1,-9.069127440E-1,-1.636397600E0,-6.388069391E-1
2.560054230E1,-9.143694043E-1,-1.577210665E0,-6.297524571E-1
2.562043860E1,-9.212934375E-1,-1.540460110E0,-6.127087474E-1
2.564031240E1,-9.244890809E-1,-1.505773425E0,-6.169696450E-1
2.566023240E1,-9.111737013E-1,-1.498316884E0,-6.052520871E-1
2.568010662E1,-8.786175251E-1,-1.493523240E0,-5.700994134E-1
2.569999386E1,-8.514540792E-1,-1.432738423E0,-5.492607951E-1
2.571987152E1,-8.296167850E-1,-1.305909157E0,-5.316844583E-1
2.573978100E1,-8.194971085E-1,-1.131077766E0,-4.965317547E-1
2.575969829E1,-8.051164150E-1,-9.370721579E-1,-4.629769027E-1
2.577959495E1,-7.533860803E-1,-7.840780616E-1,-4.485296905E-1
2.579945386E1,-6.734269857E-1,-7.105770111E-1,-4.171053171E-1
2.581934693E1,-6.015237570E-1,-6.529878378E-1,-3.541899920E-1
2.583924949E1,-5.354127288E-1,-5.074504018E-1,-2.918738425E-1
2.585913537E1,-4.469318390E-1,-2.868140042E-1,-2.481327206E-1
2.587901537E1,-3.515268862E-1,-1.141130850E-1,-2.023276985E-1
2.589890589E1,-2.667742968E-1,-5.066514388E-2,-1.458037645E-1
2.591880282E1,-2.059894353E-1,-4.320851341E-2,-8.874722570E-2
2.593869714E1,-1.591191888E-1,-2.882786840E-2,-4.400743917E-2
2.595856605E1,-1.244325340E-1,-2.403431945E-2,-2.995967865E-3
2.597849990E1,-9.513862431E-2,-3.841496632E-2,5.938674137E-2
2.599836115E1,-5.625762045E-2,-1.817553863E-2,1.398784071E-1
2.601826985E1,5.059856921E-3,6.817491353E-2,2.065220475E-1
2.603815068E1,8.661676198E-2,1.625146121E-1,2.544575334E-1
2.605803329E1,1.793586165E-1,2.552564740E-1,2.976660430E-1
2.607790553E1,2.859484851E-1,4.044556618E-1,3.349491954E-1
2.609782287E1,4.133104086E-1,6.155715585E-1,3.760272563E-1
2.611771558E1,5.513912439E-1,7.637054920E-1,4.661060274E-1
2.613759459E1,6.862097979E-1,7.333463430E-1,6.121095419E-1
2.615748641E1,8.450626731E-1,6.390066743E-1,7.784190178E-1
2.617737245E1,1.043329120E0,7.013893723E-1,9.575113058E-1
2.619726157E1,1.263499498E0,9.641690254E-1,1.188267469E0
2.621717798E1,1.458570361E0,1.264231920E0,1.478210568E0
2.623705157E1,1.561964512E0,1.462498307E0,1.789524913E0
2.625692844E1,1.656304240E0,1.553109765E0,2.089055061E0
2.627681428E1,1.812494040E0,1.567490339E0,2.334790945E0
2.629674016E1,1.922279596E0,1.386267662E0,2.444044113E0
2.631659365E1,2.098708868E0,7.946638465E-1,2.776663065E0
2.633653006E1,2.379597425E0,-5.991935614E-4,3.263274908E0
2.635640152E1,2.783586979E0,-8.176994920E-1,3.752549648E0
2.637630902E1,3.442367077E0,-1.563895226E0,4.380970478E0
2.639619277E1,4.177910328E0,-2.001506329E0,5.041881084E0
2.641606657E1,4.835092545E0,-1.831468463E0,5.462448597E0
2.643596277E1,5.363315105E0,-1.122023225E0,5.593006134E0
2.645586725E1,5.680954456E0,1.113168523E-1,5.814175129E0
2.647575954E1,5.778489590E0,2.525800705E0,5.881351471E0
2.649564745E1,5.608518600E0,5.970098495E0,5.259854317E0
2.651554891E1,4.786091805E0,7.999766827E0,4.353274345E0
2.653540459E1,3.166271925E0,6.240334988E0,3.966794729E0
2.655530745E1,1.799644589E0,2.169280529E0,3.357081890E0
2.657519990E1,-9.580439329E-1,1.403311372E0,4.623111188E-1
2.659511506E1,-5.717238903E0,3.204354048E0,-3.684374809E0
2.661498396E1,-1.082656288E1,3.434577465E0,-7.222479820E0
2.663488693E1,-1.477291775E1,1.940055609E0,-8.520333290E0
2.665474657E1,-1.540826321E1,2.198041677E0,-7.847638130E0
2.667467131E1,-1.379962826E1,4.905664444E0,-7.254436493E0
2.669452865E1,-1.103175259E1,6.298922539E0,-7.490519047E0
2.671444808E1,-8.584246635E0,4.532566547E0,-8.698360443E0
2.673434902E1,-5.688410759E0,-4.906729609E-2,-8.468070030E0
2.675421094E1,-3.794160366E0,-3.652683973E0,-6.622819901E0
2.677409735E1,-2.884318113E0,-4.034836292E0,-5.216779232E0
2.679399995E1,-1.528942227E0,-2.744506359E0,-4.167857170E0
2.681389954E1,-2.380129993E-1,-1.245656848E0,-3.350757122E0
2.683377855E1,9.911327362E-1,-2.521939278E-1,-2.706890345E0
2.685367985E1,1.885995030E0,1.187734827E-1,-2.109361172E0
2.687359949E1,2.258027792E0,3.991295099E-1,-1.677675486E0
2.689348329E1,2.587983608E0,9.182974696E-1,-1.501246214E0
2.691333376E1,3.092171669E0,1.395322084E0,-1.488996029E0
2.693323756E1,3.687570333E0,1.464628816E0,-1.557703614E0
2.695312042E1,4.153409958E0,9.993217587E-1,-1.507637620E0
2.697304256E1,4.330371857E0,6.304848194E-1,-1.321621299E0
2.699289938E1,4.313328266E0,9.694951773E-1,-1.287467241E0
2.701280324E1,4.132637978E0,1.782268047E0,-1.387133121E0
2.703267563E1,3.787236214E0,2.466680288E0,-1.395721555E0
2.705258631E1,3.428519011E0,2.800830603E0,-1.228879452E0
2.707249693E1,3.119934320E0,2.976727009E0,-9.746216536E-1
2.709241407E1,2.763347626E0,3.186777830E0,-7.625071406E-1
2.711226709E1,2.403032541E0,3.346096754E0,-7.118419409E-1
2.713216610E1,2.024608612E0,3.284845829E0,-6.974613070E-1
2.715207522E1,1.685598135E0,2.947433233E0,-5.268908739E-1
2.717193897E1,1.389796257E0,2.642044306E0,-2.849498391E-1
2.719182787E1,1.153114796E0,2.655892134E0,-1.330209672E-1
2.721169959E1,9.772847295E-1,2.837115049E0,-1.276948154E-1
2.723159745E1,8.370734453E-1,2.841908455E0,-9.141030908E-2
2.725149641E1,7.192986012E-1,2.570074320E0,6.631075591E-2
2.727138657E1,6.222957969E-1,2.263620138E0,1.643787771E-1
2.729128074E1,5.263582468E-1,2.104234695E0,1.366827190E-1
2.731116428E1,4.474644363E-1,2.023742914E0,7.430000603E-2
2.733104256E1,3.584509194E-1,1.836661458E0,4.287562892E-2
2.735095740E1,3.077857792E-1,1.491792321E0,6.151720881E-2
2.737085016E1,2.822201848E-1,1.149652719E0,9.993217140E-2
2.739072423E1,2.870137095E-1,9.555805922E-1,9.673647583E-2
2.741060803E1,2.715678513E-1,7.370746732E-1,8.015878499E-2
2.743053501E1,1.798912287E-1,4.001947343E-1,7.216953486E-2
2.745040850E1,4.880098626E-2,8.308817446E-2,6.790860742E-2
2.747028199E1,-9.513862431E-2,-1.141130850E-1,5.619104207E-2
2.749020527E1,-2.033263594E-1,-2.297574431E-1,2.902759984E-2
2.751009798E1,-2.795570791E-1,-3.304885328E-1,-9.919982404E-3
2.752996001E1,-3.392767310E-1,-4.904066622E-1,-3.708342463E-2
2.754985798E1,-3.920057416E-1,-7.116422653E-1,-3.175725788E-2
2.756975376E1,-4.213662446E-1,-9.194958210E-1,-2.057231218E-2
2.758966605E1,-4.554536939E-1,-1.031944513E0,-2.430062927E-2
2.760959022E1,-4.985956252E-1,-1.021824837E0,-7.170350105E-2
2.762943485E1,-5.588479042E-1,-9.941287041E-1,-9.360735118E-2
2.764933433E1,-6.009245515E-1,-9.796814919E-1,-1.095858440E-1
2.766922933E1,-6.366764903E-1,-9.716922641E-1,-1.511299312E-1
2.768911469E1,-6.686334610E-1,-9.317460060E-1,-1.697715074E-1
2.770898865E1,-6.505244970E-1,-8.331453800E-1,-1.559234858E-1
2.772889516E1,-5.780220628E-1,-7.127074599E-1,-1.340862066E-1
2.774876219E1,-5.012587309E-1,-6.215634942E-1,-9.840089828E-2
2.776864397E1,-4.506601393E-1,-5.463979840E-1,-5.732285231E-2
2.778858938E1,-3.877448142E-1,-4.499278069E-1,-2.749632671E-2
2.780843277E1,-2.955355942E-1,-3.646425903E-1,8.788172156E-3
2.782834975E1,-2.049241960E-1,-2.681724131E-1,2.796236612E-2
2.784826157E1,-1.388797611E-1,-1.701043993E-1,4.553871229E-2
2.786810063E1,-7.756228000E-2,-5.332822725E-2,6.577813625E-2
2.788802683E1,-2.663082560E-4,8.788172156E-2,6.204982474E-2
2.790789079E1,8.448629081E-2,2.382127345E-1,6.844121963E-2
2.792780183E1,1.825543046E-1,4.071853161E-1,1.260303855E-1
2.794770922E1,2.715678513E-1,5.878089070E-1,2.123808414E-1
2.796758766E1,3.344831765E-1,7.445313334E-1,2.950029671E-1
2.798747204E1,3.797555864E-1,8.681648970E-1,3.792229593E-1
2.800734839E1,4.378773570E-1,9.913324714E-1,4.553871155E-1
2.802723188E1,5.183690190E-1,1.152315855E0,5.321504474E-1
2.804711334E1,6.196327209E-1,1.335136414E0,5.982614756E-1
2.806703110E1,7.006570101E-1,1.483270407E0,6.430012584E-1
2.808691490E1,7.326140404E-1,1.564294696E0,6.883402467E-1
2.810678704E1,7.661688328E-1,1.627742648E0,7.422010899E-1
2.812668391E1,7.971271873E-1,1.702308893E0,7.864083052E-1
2.814658537E1,8.125730753E-1,1.770017862E0,8.258218765E-1
2.816648787E1,7.933988571E-1,1.746050119E0,9.335435629E-1
2.818636131E1,7.443315983E-1,1.630405664E0,1.033742070E0
2.820626141E1,6.739596128E-1,1.485400915E0,1.103514791E0
2.822615360E1,5.423367620E-1,1.190664172E0,1.217095256E0
2.824602157E1,3.120467067E-1,4.977301359E-1,1.394057155E0
2.826592745E1,7.223611325E-2,-4.573844373E-1,1.679206729E0
2.828581147E1,-4.667052254E-2,-1.313365698E0,2.073076725E0
2.830570219E1,-2.796236612E-2,-1.943384528E0,2.499502659E0
2.832562907E1,7.383396477E-2,-2.438518047E0,3.034049988E0
2.834553475E1,1.750976741E-1,-2.811615944E0,3.708875179E0
2.836538714E1,3.536573648E-1,-2.965142727E0,4.378307343E0
2.838526818E1,6.388069391E-1,-2.742375851E0,4.972041607E0
2.840517412E1,1.015633106E0,-1.815490007E0,5.439479351E0
2.842505756E1,1.489462018E0,2.168415040E-1,5.643072128E0
2.844494834E1,1.877473235E0,3.182450294E0,5.321704388E0
2.846483032E1,1.962225795E0,5.805387020E0,4.353806973E0
2.848472527E1,1.337000608E0,6.173158646E0,2.956753969E0
2.850465511E1,2.955355942E-1,4.036367893E0,1.527277827E0
2.852454558E1,-8.914669156E-1,2.317947149E0,-2.401434630E-1
2.854442870E1,-2.802761316E0,4.332835376E-1,-1.839124799E0
2.856429282E1,-7.529932499E0,4.428706169E-1,-5.699662685E0
2.858418636E1,-1.309284592E1,-7.670343518E-1,-7.546510220E0
2.860410235E1,-1.513642883E1,-8.427324891E-1,-5.764708042E0
2.862397662E1,-1.551005936E1,2.642044306E0,-3.836303473E0
2.864385136E1,-1.420468235E1,6.073492527E0,-4.262197018E0
2.866376850E1,-1.031431866E1,6.529745102E0,-6.351518631E0
2.868368006E1,-5.630888462E0,4.452607632E0,-8.218605995E0
2.870357412E1,-1.664826035E0,7.397377491E-1,-8.347099304E0
2.872343740E1,-5.146406889E-1,-2.619740963E0,-7.093453407E0
2.874332902E1,-6.499918699E-1,-4.095621109E0,-5.537613869E0
2.876323568E1,-3.291569948E-1,-3.757742643E0,-3.922654152E0
2.878308761E1,7.448641658E-1,-2.075007439E0,-2.976593971E0
2.880299714E1,1.932399273E0,-3.326190114E-1,-2.187722206E0
2.882287928E1,2.492578745E0,8.548495173E-1,-1.403710842E0
2.884276803E1,2.745238543E0,1.632003546E0,-1.211835742E0
2.886267641E1,3.386442423E0,2.103169441E0,-1.035939097E0
2.888258068E1,4.104342937E0,2.808819771E0,-8.398030996E-1
2.890245636E1,4.597412586E0,3.471927404E0,-7.475938797E-1
2.892234699E1,4.624576092E0,3.478318691E0,-5.914040804E-1
2.894224620E1,4.284500599E0,3.171797991E0,-3.227656186E-1
2.896210365E1,4.038831234E0,3.315204859E0,-3.814865649E-2
2.898199381E1,3.949817419E0,3.831177235E0,3.173728585E-1
2.900192318E1,3.722723007E0,4.102412224E0,6.851445436E-1
2.902180495E1,3.166804552E0,4.047552586E0,9.825443029E-1
2.904169652E1,2.666344881E0,3.862068892E0,1.030546427E0
2.906158855E1,2.451500654E0,3.442034245E0,9.330109954E-1
2.908148068E1,2.372140884E0,2.863745928E0,9.569787383E-1
2.910135522E1,2.164753199E0,2.392047405E0,1.023089767E0
2.912126860E1,1.883332014E0,2.147376537E0,9.681636691E-1
2.914113199E1,1.700511336E0,1.967751741E0,8.519867063E-1
2.916103673E1,1.596584558E0,1.756169796E0,7.698971629E-1
2.918092673E1,1.442059159E0,1.642655849E0,6.569159031E-1
2.920081428E1,1.275749683E0,1.633068800E0,5.337483287E-1
2.922068740E1,1.176083803E0,1.615492463E0,4.548544884E-1
2.924057699E1,1.103048801E0,1.498716235E0,3.989297748E-1
2.926051459E1,9.516525269E-1,1.319091320E0,3.471993804E-1
2.928036053E1,7.203638554E-1,1.248785973E0,2.315550297E-1
2.930027360E1,4.868780673E-1,1.199186087E0,1.526612043E-1
2.932014147E1,3.477985859E-1,1.005713105E0,1.350848675E-1
2.934005631E1,2.091851383E-1,6.773550510E-1,9.620385617E-2
2.935995152E1,7.330134511E-2,2.850829959E-1,1.677742042E-2
2.937982391E1,-3.115806542E-2,-4.533898085E-2,-8.395367861E-2
2.939974532E1,-1.148454323E-1,-2.324205339E-1,-1.761629134E-1
2.941963329E1,-2.049241960E-1,-3.646425903E-1,-2.796236575E-1
2.943957251E1,-2.886115611E-1,-5.575829148E-1,-3.878113925E-1
2.945939272E1,-3.589835167E-1,-7.878063917E-1,-4.645747542E-1
2.947927292E1,-4.245619476E-1,-1.030879259E0,-4.837489426E-1
2.949916188E1,-5.017913580E-1,-1.184938550E0,-4.837489426E-1
2.951907818E1,-5.684349537E-1,-1.197188735E0,-5.125102401E-1
2.953896870E1,-6.116434932E-1,-1.181742907E0,-5.343475342E-1
2.955886923E1,-6.499918699E-1,-1.216362953E0,-5.247604251E-1
2.957875370E1,-6.819488406E-1,-1.263299823E0,-5.322170258E-1
2.959864193E1,-7.102441192E-1,-1.240863323E0,-5.594470501E-1
2.961852376E1,-7.192986012E-1,-1.147588849E0,-5.642406344E-1
2.963841782E1,-7.038527131E-1,-1.055379629E0,-5.562513471E-1
2.965829157E1,-6.739596128E-1,-9.743553400E-1,-5.567839742E-1
2.967819605E1,-6.425352693E-1,-9.131044149E-1,-5.439345837E-1
2.969809548E1,-6.143065691E-1,-8.923323750E-1,-5.359453559E-1
2.971798485E1,-5.780220628E-1,-8.816134930E-1,-5.183690190E-1
2.973787303E1,-5.444672108E-1,-8.299496770E-1,-4.768249393E-1
2.975775943E1,-5.247604251E-1,-7.872737646E-1,-4.048551321E-1
2.977767626E1,-5.146406889E-1,-7.361425757E-1,-2.993304729E-1
2.979759714E1,-4.890085459E-1,-5.501262546E-1,-2.236323506E-1
2.981743469E1,-4.266923964E-1,-3.081186414E-1,-1.340862066E-1
2.983734339E1,-3.339505494E-1,-1.290263534E-1,-6.191667169E-3
2.985721917E1,-2.369477749E-1,2.063889056E-3,1.127149686E-1
2.987711225E1,-1.329544038E-1,1.145125479E-1,1.894783229E-1
2.989701110E1,-3.994623665E-3,2.280930281E-1,2.470009029E-1
2.991689298E1,1.345522404E-1,4.082505703E-1,3.024595976E-1
2.993679105E1,2.630459666E-1,7.194983363E-1,3.408080041E-1
2.995666120E1,3.786903322E-1,1.064367533E0,3.722989559E-1
2.997656428E1,4.746278822E-1,1.255177379E0,4.410064816E-1
2.999645438E1,5.354127288E-1,1.290330052E0,5.695002079E-1
3.001631532E1,5.556522012E-1,1.312699914E0,6.968621016E-1
3.003623204E1,5.572500229E-1,1.410235405E0,7.949301600E-1
3.005613662E1,5.663045049E-1,1.490194440E0,8.956612349E-1
3.007603646E1,6.089804173E-1,1.429476142E0,1.031078935E0
3.009589287E1,6.782205701E-1,1.323352337E0,1.215497494E0
3.011579516E1,7.262226343E-1,1.370821714E0,1.422285795E0
3.013569652E1,7.773538232E-1,1.570686102E0,1.627476335E0
3.015561490E1,8.003228903E-1,1.701776385E0,1.912093282E0
3.017550813E1,8.386712670E-1,1.604773521E0,2.289984703E0
3.019536495E1,8.466604948E-1,1.240796685E0,2.688714743E0
3.021525022E1,8.551824093E-1,5.553193092E-1,2.971733809E0
3.023514865E1,8.872059584E-1,-3.950017095E-1,3.122530937E0
3.025504579E1,9.895349145E-1,-1.373618007E0,3.352288246E0
3.027491449E1,1.025220156E0,-2.163488388E0,3.657144785E0
3.029480574E1,9.282174110E-1,-2.732722282E0,3.906076431E0
3.031469495E1,9.276847839E-1,-3.288640738E0,4.177910328E0
3.033460230E1,1.171822906E0,-4.099349499E0,4.613324642E0
3.035450495E1,1.239465237E0,-5.130694866E0,5.211918831E0
3.037435563E1,1.059307694E0,-5.835346699E0,5.843002796E0
3.039428277E1,8.194971085E-1,-4.906330109E0,6.132413387E0
3.041418188E1,2.912746668E-1,-2.272741318E0,6.284808159E0
3.043405688E1,-3.307548463E-1,2.152702808E0,5.569038391E0
3.045394022E1,-7.400706410E-1,6.250454426E0,4.390025139E0
3.047385766E1,-7.081136703E-1,7.818543911E0,3.032984734E0
3.049374553E1,-9.692289233E-1,6.143797874E0,1.860429525E0
3.051362881E1,-3.832508802E0,3.700020313E0,4.858128428E-1
3.053353589E1,-9.310735703E0,4.047019958E0,-2.391314983E0
3.055341511E1,-1.562570381E1,6.449253559E0,-4.887888432E0
3.057327225E1,-1.645345688E1,6.350653172E0,-6.075955868E0
3.059321027E1,-1.452558422E1,5.325698853E0,-7.205369473E0
3.061305574E1,-1.289138317E1,3.539569616E0,-7.681395531E0
3.063294990E1,-9.916720390E0,1.932599068E0,-7.884987831E0
3.065285407E1,-6.660103321E0,1.378145255E-2,-7.217686176E0
3.067275943E1,-4.890018940E0,-1.651310921E0,-5.693271160E0
3.069264558E1,-3.166804552E0,-1.564427853E0,-4.565988064E0
3.071252610E1,-1.676010966E0,-5.858116150E-1,-4.142757893E0
3.073240688E1,-3.808208108E-1,-5.119776353E-2,-3.531447172E0
3.075231256E1,7.224943042E-1,3.047898114E-1,-2.790045023E0
3.077219792E1,1.454841971E0,7.738252282E-1,-2.317281246E0
3.079208475E1,2.048576355E0,1.368691325E0,-2.079001904E0
3.081198230E1,2.690845251E0,1.951773167E0,-1.903638005E0
3.083186907E1,3.150826216E0,2.368079662E0,-1.595053315E0
3.085175344E1,3.507412910E0,2.870669842E0,-1.374350309E0
3.087166006E1,3.949817419E0,3.432447195E0,-1.342925906E0
3.089154303E1,4.340491772E0,3.770924807E0,-1.067896128E0
3.091143370E1,4.541421413E0,4.064596176E0,-5.519238710E-1
3.093133188E1,4.594216824E0,4.554936409E0,-1.420754492E-1
3.095122808E1,4.592086315E0,4.910990715E0,1.579873711E-1
3.097110230E1,4.311197758E0,4.875837803E0,4.356803000E-1
3.099101308E1,3.826117277E0,4.715387344E0,6.926012039E-1
3.101089480E1,3.325124979E0,4.570382118E0,8.376060128E-1
3.103078386E1,2.949363947E0,4.380105019E0,8.509214520E-1
3.105066094E1,2.691377878E0,4.146686077E0,8.220936060E-1
3.107055209E1,2.441913605E0,4.013398647E0,8.386712670E-1
3.109045756E1,2.170079470E0,4.071520329E0,8.322132826E-1
3.111035193E1,1.882266760E0,4.171718597E0,7.549839020E-1
3.113023792E1,1.612563014E0,4.111000538E0,6.537202001E-1
3.115014350E1,1.412698746E0,3.914265394E0,6.153052449E-1
3.117002657E1,1.274151802E0,3.722390175E0,6.702312827E-1
3.118990443E1,1.087070346E0,3.609941483E0,7.005904317E-1
3.120979709E1,8.722261190E-1,3.481514454E0,6.131747365E-1
3.122972969E1,7.523208261E-1,3.254952669E0,4.468652606E-1
3.124962219E1,6.888728738E-1,2.784852028E0,4.031907022E-1
3.126950548E1,6.473287940E-1,2.176204443E0,4.858128428E-1
3.128935058E1,5.647066832E-1,1.708234310E0,5.305526257E-1
3.130927016E1,4.143756330E-1,1.452378631E0,4.340824485E-1
3.132914219E1,2.747635543E-1,1.230610490E0,3.040574491E-1
3.134905537E1,1.537930220E-1,8.799490333E-1,2.033263594E-1
3.136893792E1,5.892070010E-2,4.199681282E-1,8.814803511E-2
3.138880344E1,-4.021254554E-2,-2.776263654E-2,-3.282249346E-2
3.140869787E1,-1.196389869E-1,-2.995967865E-1,-1.495320797E-1
3.142858511E1,-1.607170254E-1,-3.593164086E-1,-2.433391660E-1
3.144853761E1,-1.793586165E-1,-4.242956340E-1,-2.619807422E-1
3.146837855E1,-1.782933772E-1,-5.932682157E-1,-2.892107666E-1
3.148826178E1,-1.607170254E-1,-8.246235251E-1,-3.675054014E-1
3.150817600E1,-1.724345982E-1,-1.069227695E0,-4.405404329E-1
3.152804647E1,-2.203700840E-1,-1.199851871E0,-5.220973492E-1
3.154793730E1,-2.774266303E-1,-1.203580141E0,-5.764908195E-1
3.156783048E1,-3.398093283E-1,-1.236602426E0,-5.487281680E-1
3.158774172E1,-3.685706258E-1,-1.381074667E0,-4.986622036E-1
3.160764126E1,-3.733641803E-1,-1.548449397E0,-4.149748385E-1
3.162756730E1,-3.925383687E-1,-1.626744032E0,-3.089175820E-1
3.164741016E1,-4.330838025E-1,-1.548449397E0,-2.396108508E-1
3.166731245E1,-5.087153316E-1,-1.316561460E0,-2.081864774E-1
3.168717933E1,-6.025890112E-1,-9.807467461E-1,-2.119147927E-1
3.170709464E1,-6.649051309E-1,-6.167699099E-1,-2.518610358E-1
3.172695943E1,-6.329481602E-1,-3.971321881E-1,-2.908086181E-1
3.174684120E1,-5.146406889E-1,-4.525908828E-1,-2.412087023E-1
3.176673943E1,-3.920057416E-1,-6.481943130E-1,-1.271621883E-1
3.178665610E1,-3.451355100E-1,-8.240908980E-1,-3.761604056E-2
3.180658626E1,-3.467333615E-1,-8.656349778E-1,3.062544949E-2
3.182648464E1,-3.520595133E-1,-7.217619419E-1,4.607132822E-2
3.184632136E1,-3.462007344E-1,-5.234954357E-1,-7.789516356E-3
3.186619277E1,-3.435376585E-1,-4.318188429E-1,-6.850779802E-2
3.188611058E1,-3.483312130E-1,-4.627105892E-1,-1.085206121E-1
3.190599422E1,-3.648423254E-1,-5.543872118E-1,-1.410102248E-1
3.192585917E1,-4.010602236E-1,-6.705641747E-1,-1.724345982E-1
3.194577219E1,-4.565189183E-1,-7.244250178E-1,-1.868818253E-1
3.196568350E1,-5.103797913E-1,-6.396724582E-1,-1.468690038E-1
3.198559219E1,-5.183690190E-1,-4.291557670E-1,-9.360735118E-2
3.200545100E1,-4.708995819E-1,-1.860828996E-1,-5.199668556E-2
3.202532917E1,-3.691032529E-1,4.527240247E-2,2.263620123E-2
3.204521396E1,-1.980001926E-1,3.410742879E-1,1.478676647E-1
3.206511626E1,4.880098626E-2,7.429334521E-1,3.461341560E-1
3.208500006E1,3.584509194E-1,1.203979611E0,6.147726178E-1
3.210487594E1,6.718291640E-1,1.596251726E0,9.260869622E-1
3.212475584E1,9.447285533E-1,1.824943900E0,1.276215792E0
3.214468006E1,1.139799356E0,2.034395456E0,1.633867741E0
3.216454318E1,1.208040833E0,2.239585876E0,1.976073861E0
3.218443860E1,1.246921778E0,2.094115019E0,2.329464912E0
3.220433344E1,1.278412819E0,1.160305023E0,2.833120346E0
3.222421360E1,1.222954035E0,-6.162372828E-1,3.529782772E0
3.224410589E1,1.178214312E0,-2.450768232E0,4.111267090E0
3.226400396E1,1.498516560E0,-3.947487354E0,4.411862373E0
3.228390422E1,2.304431915E0,-5.091814041E0,4.651206970E0
3.230381141E1,3.251024723E0,-5.946197510E0,4.985357285E0
3.232367245E1,4.250945568E0,-6.267098904E0,5.224701881E0
3.234362454E1,5.088285446E0,-5.802856922E0,5.178297520E0
3.236354579E1,5.958647251E0,-4.681366444E0,5.089883327E0
3.238335391E1,6.839727879E0,-3.060547590E0,5.361117840E0
3.240327006E1,7.149377823E0,-6.017900705E-1,5.717172146E0
3.242316006E1,6.404779911E0,2.756623268E0,5.454925060E0
3.244305881E1,4.836690426E0,5.894932747E0,4.760459900E0
3.246292938E1,3.159880638E0,7.858490467E0,3.833573818E0
3.248283173E1,1.079081059E0,7.989048004E0,2.168481588E0
3.250273214E1,-2.566679001E0,6.827677727E0,-6.254914999E-1
3.252261829E1,-7.758624554E0,6.098525524E0,-4.760526180E0
3.254251839E1,-1.279225063E1,5.285153866E0,-7.540118694E0
3.256236964E1,-1.433157825E1,5.321970940E0,-9.150817871E0
3.258226464E1,-1.356620884E1,5.764841557E0,-1.029201508E1
3.260218516E1,-1.214358997E1,3.659541368E0,-1.025200272E1
3.262207350E1,-1.154026890E1,3.250958025E-1,-9.575646400E0
3.264193475E1,-1.035273361E1,-1.825077057E0,-8.255955696E0
3.266185745E1,-8.049633026E0,-2.722602367E0,-6.142599583E0
3.268173605E1,-6.142533302E0,-1.928471208E0,-4.461528778E0
3.270162834E1,-4.509996891E0,-1.167761683E-1,-3.620993376E0
3.272154245E1,-2.732988596E0,1.314830422E0,-3.146631718E0
3.274143787E1,-1.288532495E0,2.065819740E0,-2.638116121E0
3.276129339E1,1.404775977E-1,2.423471689E0,-1.908964157E0
3.278119610E1,2.039521694E0,8.159685135E-1,-9.256209135E-1
3.280107990E1,2.795837164E0,-1.368291855E0,-1.091331244E0
3.282095313E1,2.872067928E0,-4.637758136E-1,-1.855702519E0
3.284084157E1,3.230252504E0,1.037137508E0,-1.220890164E0
3.286075558E1,3.790431976E0,2.580193996E0,-4.527906179E-1
3.288061855E1,3.936501980E0,4.554936409E0,-4.426709116E-1
3.290054652E1,3.868793249E0,5.645468712E0,-1.383471340E-1
3.292043798E1,3.721125364E0,5.579890251E0,5.955983996E-1
3.294030480E1,3.631046534E0,5.036821365E0,1.012903452E0
3.296022110E1,3.524989128E0,4.183436394E0,1.083808064E0
3.298010350E1,3.302222490E0,3.061479807E0,1.131277442E0
3.299998376E1,2.975994825E0,2.288120508E0,1.037470341E0
3.301986324E1,2.726530552E0,2.291316271E0,8.344103694E-1
3.303979053E1,2.621538401E0,2.708621264E0,6.371424794E-1
3.305969834E1,2.522405148E0,3.068403721E0,4.751605093E-1
3.307960959E1,2.274605274E0,3.240039349E0,3.605147898E-1
3.309944928E1,1.937725425E0,3.296030760E0,2.918072641E-1
3.311932006E1,1.690391660E0,3.258148432E0,2.997965217E-1
3.313922292E1,1.590725780E0,3.234180689E0,3.541234136E-1
3.315909079E1,1.466559529E0,3.239506721E0,4.154408872E-1
3.317901308E1,1.252314568E0,3.309346199E0,5.342809558E-1
3.319890568E1,9.686962962E-1,3.503351688E0,5.865439177E-1
3.321879704E1,8.051164150E-1,3.638702869E0,5.108458400E-1
3.323867209E1,7.102441192E-1,3.404751062E0,5.087153316E-1
3.325857495E1,6.100456119E-1,2.864278555E0,5.433354378E-1
3.327848558E1,4.639755487E-1,2.251303434E0,4.804866612E-1
3.329833272E1,3.307548463E-1,1.673014998E0,3.456015289E-1
3.331825225E1,2.545241117E-1,1.123487949E0,2.203700840E-1
3.333812662E1,2.049241960E-1,6.448654532E-1,1.292260885E-1
3.335802324E1,1.350848675E-1,2.462019771E-1,5.672365800E-2
3.337790053E1,5.945331976E-2,-9.493889660E-2,-1.790923066E-2
3.339780975E1,5.592473317E-3,-4.392754734E-1,-8.235582709E-2
3.341770048E1,-3.808208182E-2,-7.531863451E-1,-1.468690038E-1
3.343761115E1,-1.100518852E-1,-9.909330010E-1,-1.825543046E-1
3.345749495E1,-2.256962508E-1,-1.176416755E0,-2.172409594E-1
3.347738172E1,-3.488638103E-1,-1.360302567E0,-2.710352242E-1
3.349726605E1,-4.618450999E-1,-1.520154119E0,-3.105154335E-1
3.351713147E1,-5.647066832E-1,-1.593189120E0,-3.894092441E-1
3.353704355E1,-6.446657181E-1,-1.637462854E0,-5.034557581E-1
3.355694829E1,-7.027874589E-1,-1.762161732E0,-5.727624893E-1
3.357684381E1,-7.437989712E-1,-1.938058376E0,-6.015237570E-1
3.359672022E1,-7.624405622E-1,-2.080866098E0,-6.089804173E-1
3.361662693E1,-7.459294200E-1,-2.075540066E0,-5.860778689E-1
3.363656146E1,-7.496577501E-1,-1.985461235E0,-5.455324650E-1
3.365638949E1,-7.464620471E-1,-1.945514917E0,-5.082492828E-1
3.367626219E1,-7.517881989E-1,-1.919416785E0,-4.309533238E-1
3.369616324E1,-7.496577501E-1,-1.793053508E0,-3.771590590E-1
3.371605527E1,-7.230269313E-1,-1.596917510E0,-4.112465382E-1
3.373596162E1,-6.851445436E-1,-1.480740428E0,-4.554536939E-1
3.375583313E1,-6.547853947E-1,-1.450381398E0,-4.416056573E-1
3.377574673E1,-6.164370179E-1,-1.405042410E0,-4.229640961E-1
3.379564506E1,-5.806851387E-1,-1.318691850E0,-4.187031686E-1
3.381555522E1,-5.497934222E-1,-1.239798069E0,-3.798221648E-1
3.383539813E1,-5.119776130E-1,-1.141197443E0,-3.424724042E-1
3.385528162E1,-4.645081758E-1,-1.027683616E0,-3.477985859E-1
3.387518459E1,-4.127778113E-1,-9.418657422E-1,-3.403419554E-1
3.389508615E1,-3.627118468E-1,-8.299496770E-1,-3.334179223E-1
3.391498433E1,-3.221664131E-1,-6.870753169E-1,-3.185046613E-1
3.393486100E1,-2.875463367E-1,-5.751592517E-1,-2.646438181E-1
3.395475766E1,-2.491979450E-1,-4.914718866E-1,-1.938058287E-1
3.397463386E1,-2.246310115E-1,-3.641099632E-1,-1.271621883E-1
3.399454714E1,-1.964023411E-1,-1.493323594E-1,-8.661676198E-2
3.401442719E1,-1.548582464E-1,6.497921795E-2,-3.601819277E-2
3.403430313E1,-1.105845049E-1,1.880802065E-1,5.991935730E-2
3.405421350E1,-7.543181628E-2,2.882786989E-1,1.707701683E-1
3.407408594E1,-6.318163127E-2,4.987953603E-1,2.757622004E-1
3.409400027E1,-5.252930522E-2,7.797505856E-1,4.202344418E-1
3.411385844E1,-1.731003635E-2,9.822779894E-1,6.360772848E-1
3.413375912E1,6.211639941E-2,1.146923065E0,8.738239408E-1
3.415365667E1,2.219679356E-1,1.506705523E0,1.066764355E0
3.417356938E1,4.788888097E-1,1.994449139E0,1.235736847E0
3.419342240E1,7.886053324E-1,2.392047405E0,1.428677201E0
3.421332495E1,1.063035965E0,2.622803450E0,1.671750069E0
3.423321027E1,1.261901617E0,2.784852028E0,1.908897638E0
3.425311756E1,1.370622039E0,2.975129366E0,2.122077227E0
3.427299678E1,1.386067867E0,3.147297621E0,2.325736523E0
3.429288469E1,1.403111577E0,3.167536974E0,2.571405888E0
3.431275740E1,1.405774713E0,2.905889034E0,2.799565554E0
3.433266574E1,1.468157411E0,2.349371433E0,2.946634293E0
3.435257647E1,1.520886421E0,1.451313376E0,2.956753969E0
3.437247094E1,1.545453429E0,2.189719677E-1,3.174793959E0
3.439232751E1,1.616291404E0,-8.784177899E-1,3.442899704E0
3.441224240E1,1.774078965E0,-1.714692235E0,3.725386143E0
3.443214839E1,2.102969646E0,-2.668808222E0,4.263195515E0
3.445204782E1,2.494176626E0,-3.808341265E0,5.045609474E0
3.447191485E1,2.918472290E0,-4.517253876E0,5.887209892E0
3.449182006E1,3.375723362E0,-3.863267183E0,6.434606552E0
3.451171318E1,3.489303827E0,-1.126816750E0,6.293396473E0
3.453158907E1,2.928591967E0,2.824332237E0,5.071707726E0
3.455147959E1,1.610432625E0,4.535229683E0,3.171598196E0
3.457136245E1,1.052583382E-1,1.699113250E0,1.689859033E0
3.459125006E1,-2.531992435E0,-2.777528524E0,6.973947287E-1
3.461115120E1,-7.771940231E0,-7.430666089E-1,-1.824211597E0
3.463103782E1,-1.479049397E1,3.751750708E0,-2.728194952E0
3.465094339E1,-1.746722603E1,4.412128448E0,-2.556026697E0
3.467083308E1,-1.746722603E1,5.509584904E0,-3.188175917E0
3.469072818E1,-1.513110256E1,6.301053047E0,-3.309146404E0
3.471061964E1,-1.155145359E1,6.114504337E0,-4.943346977E0
3.473049766E1,-9.255276680E0,4.509664059E0,-7.090257645E0
3.475040235E1,-6.292864323E0,1.992318630E0,-8.171735764E0
3.477026006E1,-3.916728735E0,-6.679010987E-1,-8.274597168E0
3.479019751E1,-3.086845636E0,-2.539249182E0,-7.654697895E0
3.481004282E1,-2.339584589E0,-3.238042116E0,-6.296658993E0
3.482994094E1,-1.619553685E0,-2.573935986E0,-5.079763412E0
3.484983183E1,-8.668999672E-1,-1.338398695E0,-4.164129257E0
3.486975105E1,7.170350105E-2,-2.521939278E-1,-3.178056240E0
3.488964896E1,1.584867001E0,1.069161057E0,-2.250637531E0
3.490951782E1,2.541046858E0,1.831867933E0,-1.637662649E0
3.492941094E1,3.026659966E0,1.544055223E0,-1.508170247E0
3.494928152E1,3.562871695E0,1.379343629E0,-1.229944706E0
3.496919683E1,3.909804583E0,1.625079513E0,-9.389363527E-1
3.498909365E1,4.215792656E0,2.379264593E0,-8.322798610E-1
3.500897511E1,4.351143837E0,3.317867994E0,-6.937330365E-1
3.502886594E1,4.250412941E0,4.187697411E0,-3.520595133E-1
3.504877516E1,4.030309200E0,5.024504662E0,2.725664973E-1
3.506864251E1,3.758475065E0,5.775027752E0,8.050498366E-1
3.508852922E1,3.284046888E0,6.083079815E0,9.271522164E-1
3.510842522E1,2.696171284E0,5.601261616E0,1.168027997E0
3.512830542E1,2.390249729E0,4.787889481E0,1.489462018E0
3.514819469E1,2.175472260E0,4.156805515E0,1.609367371E0
3.516810725E1,1.961160541E0,3.872188568E0,1.492125154E0
3.518800032E1,1.689326406E0,3.795425177E0,1.276215792E0
3.520786568E1,1.606704235E0,3.745359421E0,1.164832354E0
3.522777454E1,1.708500624E0,3.561473370E0,1.169093251E0
3.524768964E1,1.695717812E0,3.265604973E0,1.127549171E0
3.526758969E1,1.574214697E0,3.089175701E0,1.009175181E0
3.528745391E1,1.364763260E0,3.055088282E0,9.068461657E-1
3.530734933E1,1.244791389E0,3.120134115E0,8.242240548E-1
3.532724162E1,1.148853779E0,3.090240955E0,7.555165291E-1
3.534710699E1,9.655005932E-1,2.908019543E0,6.771553159E-1
3.536701542E1,8.072469234E-1,2.671338081E0,5.593804717E-1
3.538690902E1,6.899381280E-1,2.368612289E0,4.911389947E-1
3.540680204E1,6.436004639E-1,1.966686487E0,4.596480429E-1
3.542669558E1,5.742937326E-1,1.381474137E0,3.925383687E-1
3.544658167E1,5.141080618E-1,6.720288992E-1,2.576532364E-1
3.546652287E1,4.463992119E-1,1.537930220E-2,6.204982474E-2
3.548636714E1,3.200359344E-1,-4.637758136E-1,-1.537930220E-1
3.550626188E1,1.377479434E-1,-8.166342378E-1,-3.435376585E-1
3.552613428E1,-5.359453708E-2,-1.068162441E0,-4.800206423E-1
3.554602542E1,-2.225005478E-1,-1.119892836E0,-5.460650921E-1
3.556590943E1,-3.728315532E-1,-1.032477140E0,-5.513912439E-1
3.558581511E1,-4.852802157E-1,-1.053249121E0,-5.653058290E-1
3.560572068E1,-5.513912439E-1,-1.263832450E0,-5.695667863E-1
3.562562037E1,-5.897396207E-1,-1.519621491E0,-5.610449314E-1
3.564551683E1,-6.143065691E-1,-1.672083020E0,-5.834147930E-1
3.566535475E1,-6.292198300E-1,-1.656104445E0,-6.191000938E-1
3.568525230E1,-6.542528272E-1,-1.497784257E0,-6.446657181E-1
3.570517266E1,-6.755574942E-1,-1.363498211E0,-6.495258212E-1
3.572502355E1,-6.649051309E-1,-1.381607175E0,-6.446657181E-1
3.574491865E1,-6.499918699E-1,-1.485001445E0,-6.185675263E-1
3.576483704E1,-6.329481602E-1,-1.525480270E0,-5.791538954E-1
3.578470839E1,-6.116434932E-1,-1.471153378E0,-5.402063131E-1
3.580458902E1,-5.966636539E-1,-1.362433076E0,-5.077167153E-1
3.582450183E1,-5.908048749E-1,-1.242461205E0,-4.704335332E-1
3.584437995E1,-5.721632838E-1,-1.161969543E0,-4.298880994E-1
3.586426209E1,-5.396736860E-1,-1.136936545E0,-3.835504651E-1
3.588419615E1,-5.076501369E-1,-1.116164446E0,-3.142437339E-1
3.590405063E1,-4.661060274E-1,-1.001585364E0,-2.428065538E-1
3.592396485E1,-4.111799598E-1,-7.798171639E-1,-1.980667710E-1
3.594384662E1,-3.451355100E-1,-5.533219576E-1,-1.601844132E-1
3.596374089E1,-2.843506336E-1,-4.019257426E-1,-1.005313694E-1
3.598364568E1,-2.219679356E-1,-2.878792286E-1,-5.838808417E-2
3.600357094E1,-1.366827190E-1,-1.764957905E-1,-2.802894451E-2
3.602344027E1,-5.465976894E-2,-7.523208112E-2,3.541899845E-2
3.604327074E1,1.411433797E-2,2.922733128E-2,1.068561897E-1
3.606317370E1,7.969274372E-2,1.251648813E-1,1.713027805E-1
3.608309766E1,1.474016160E-1,2.270277888E-1,2.539249361E-1
3.610296344E1,2.219679356E-1,3.671725094E-1,3.685040474E-1
3.612283381E1,3.344831765E-1,5.302863121E-1,5.406723619E-1
3.614274933E1,4.767583609E-1,6.544525623E-1,7.587122321E-1
3.616263522E1,6.446657181E-1,7.679664493E-1,1.012903452E0
3.618252355E1,8.003228903E-1,8.879383206E-1,1.282074571E0
3.620243318E1,9.053149223E-1,9.225583673E-1,1.534734488E0
3.622229803E1,9.858065844E-1,8.276860714E-1,1.736196637E0
3.624219553E1,1.081211567E0,6.939327121E-1,1.975541234E0
3.626208178E1,1.290130377E0,6.907370687E-1,2.253766775E0
3.628197027E1,1.543322921E0,8.399362564E-1,2.503231049E0
3.630186042E1,1.801242471E0,9.310802221E-1,2.818739653E0
3.632177454E1,2.051239252E0,7.487922311E-1,3.192370176E0
3.634164881E1,2.309225559E0,1.272953451E-1,3.626252890E0
3.636155355E1,2.581592321E0,-8.555153012E-1,4.060601711E0
3.638144652E1,2.875796318E0,-1.978537202E0,4.349545956E0
3.640134652E1,3.104488611E0,-3.104222298E0,4.571780205E0
3.642123620E1,3.315537691E0,-3.867528200E0,4.870778084E0
3.644110022E1,3.530848026E0,-3.620727062E0,5.213516712E0
3.646102808E1,3.528184891E0,-1.974808931E0,5.146340370E0
3.648087844E1,3.296363592E0,7.019219995E-1,4.411862373E0
3.650079089E1,2.890709639E0,3.521460533E0,3.627318144E0
3.652068725E1,2.353432655E0,5.135954380E0,3.016473532E0
3.654056360E1,1.672815323E0,4.146153450E0,2.648169279E0
3.656045516E1,1.286934614E-1,1.477411628E0,2.053902388E0
3.658033949E1,-2.639181376E0,-2.990641594E-1,4.852802157E-1
3.660025850E1,-7.334329128E0,1.603175759E0,-2.352966547E0
3.662013225E1,-1.284930706E1,3.519330263E0,-4.756265640E0
3.664001761E1,-1.596844196E1,3.350890160E0,-5.739675045E0
3.665991157E1,-1.688620758E1,3.641366005E0,-5.474232674E0
3.667980011E1,-1.531924915E1,4.478772163E0,-4.486561775E0
3.669973105E1,-1.252627468E1,5.164715767E0,-4.931629658E0
3.671962100E1,-1.033728790E1,4.425976753E0,-6.212971687E0
3.673953074E1,-6.834402084E0,2.621738195E0,-6.762498856E0
3.675937719E1,-3.149228334E0,6.854108572E-1,-6.802977562E0
3.677927365E1,-1.045459628E0,-1.296321988E0,-6.090869427E0
3.679915964E1,9.460600466E-2,-2.940109730E0,-4.729102135E0
3.681906141E1,6.436004639E-1,-3.585574389E0,-3.351822376E0
3.683891709E1,1.024687648E0,-3.074395657E0,-2.416947126E0
3.685880839E1,1.561964512E0,-1.809031963E0,-1.783732653E0
3.687873360E1,1.933464527E0,-3.763601482E-1,-1.102516174E0
3.689860641E1,2.232994795E0,9.305475950E-1,-6.548519731E-1
3.691850391E1,2.794239283E0,1.956566811E0,-5.711646080E-1
3.693838787E1,3.445562840E0,2.898898602E0,-5.562513471E-1
3.695829183E1,3.942360878E0,4.031041622E0,-5.465977192E-1
3.697817157E1,4.303740978E0,4.686625957E0,-4.912055731E-1
3.699804620E1,4.546747208E0,4.314060688E0,-2.268280536E-1
3.701794282E1,4.609129906E0,3.486840487E0,1.089866534E-1
3.703783475E1,4.361796379E0,3.031120539E0,2.177069932E-1
3.705774298E1,3.952480555E0,2.935183048E0,1.884130985E-1
3.707765615E1,3.653949022E0,2.909084797E0,1.798246503E-1
3.709756251E1,3.320863962E0,2.852560997E0,2.581858635E-1
3.711741464E1,2.748966932E0,2.948498487E0,2.784918547E-1
3.713729188E1,2.144513845E0,3.277389050E0,2.129134536E-1
3.715721641E1,1.696250439E0,3.597158670E0,1.814225018E-1
3.717709777E1,1.348784685E0,3.715998888E0,2.219679356E-1
3.719696022E1,1.104646683E0,3.579582453E0,3.226990402E-1
3.721684808E1,9.452611804E-1,3.202223539E0,4.010602236E-1
3.723676933E1,7.886053324E-1,2.674533844E0,4.671712518E-1
3.725662870E1,6.787531376E-1,2.188454628E0,5.156393647E-1
3.727660766E1,5.961310267E-1,1.841454983E0,4.666386545E-1
3.729641110E1,5.194342732E-1,1.603175759E0,3.466667831E-1
3.731629433E1,4.400078058E-1,1.342593074E0,2.459356785E-1
3.733620115E1,3.786903322E-1,9.961260557E-1,2.075872868E-1
3.735607636E1,3.173728585E-1,6.517894268E-1,1.595852226E-1
3.737598699E1,2.246310115E-1,3.570528030E-1,4.820179567E-2
3.739585855E1,1.004647911E-1,2.017285116E-2,-1.047922969E-1
3.741577995E1,-3.328853101E-2,-3.912734091E-1,-2.326868325E-1
3.743566464E1,-1.639127284E-1,-7.233598232E-1,-3.051892519E-1
3.745560334E1,-2.689047754E-1,-8.725590110E-1,-3.600487709E-1
3.747550527E1,-3.509942889E-1,-9.237567782E-1,-4.091160595E-1
3.749532876E1,-4.154408872E-1,-9.775510430E-1,-4.543884695E-1
3.751522886E1,-4.607798457E-1,-1.076218247E0,-4.704335332E-1
3.753509938E1,-4.687691033E-1,-1.176949382E0,-4.618450999E-1
3.755499428E1,-4.533232152E-1,-1.248319983E0,-4.410730600E-1
3.757491381E1,-4.410730600E-1,-1.285669684E0,-4.357468784E-1
3.759480407E1,-4.479970634E-1,-1.251515627E0,-4.581167698E-1
3.761468995E1,-4.703669548E-1,-1.149186730E0,-4.762923121E-1
3.763456152E1,-4.810192883E-1,-1.056444883E0,-4.736292362E-1
3.765447808E1,-4.820845127E-1,-1.061238408E0,-4.368121028E-1
3.767436167E1,-4.975304008E-1,-1.114034057E0,-3.904744685E-1
3.769426068E1,-5.060522556E-1,-1.133208156E0,-3.766264617E-1
3.771411751E1,-5.001934767E-1,-1.138534427E0,-3.755612075E-1
3.773402131E1,-4.820845127E-1,-1.117762327E0,-3.552552164E-1
3.775391162E1,-4.511927664E-1,-1.023955226E0,-3.371462524E-1
3.777380360E1,-4.069190025E-1,-9.115065932E-1,-3.280917704E-1
3.779372688E1,-3.675054014E-1,-8.501890898E-1,-3.110480309E-1
3.781361183E1,-3.509942889E-1,-8.123733401E-1,-2.865476906E-1
3.783352490E1,-3.323526978E-1,-7.318816781E-1,-2.593176663E-1
3.785336266E1,-2.960681915E-1,-6.204982400E-1,-2.215018868E-1
3.787324350E1,-2.449370176E-1,-5.298868418E-1,-1.601844132E-1
3.789313657E1,-1.932066381E-1,-4.430037737E-1,-8.075797558E-2
3.791304985E1,-1.345522404E-1,-3.001294136E-1,-2.376801148E-2
3.793294037E1,-6.051855162E-2,-1.215697154E-1,1.304910425E-2
3.795284277E1,1.464695390E-2,8.455286734E-3,6.364767253E-2
3.797270761E1,7.702966034E-2,7.989247888E-2,1.329544038E-1
3.799260172E1,1.340196282E-1,1.742321700E-1,1.980001926E-1
3.801254251E1,1.846847683E-1,3.325524330E-1,2.528596818E-1
3.803240011E1,2.246310115E-1,5.249601603E-1,3.051226735E-1
3.805225391E1,2.667742968E-1,6.746919751E-1,3.818860352E-1
3.807214266E1,3.099162281E-1,7.296180725E-1,5.103132129E-1
3.809203230E1,3.595161438E-1,6.832138300E-1,6.665030122E-1
3.811194506E1,4.213662446E-1,5.377429724E-1,8.392038941E-1
3.813185245E1,5.220973492E-1,3.570528030E-1,1.050253153E0
3.815171865E1,6.558506489E-1,3.021267056E-1,1.257041574E0
3.817162537E1,8.861407042E-1,5.958647132E-1,1.392459273E0
3.819152959E1,1.116364241E0,1.248785973E0,1.537930131E0
3.821142422E1,1.281608462E0,1.748713136E0,1.714892030E0
3.823127365E1,1.340196252E0,1.995514393E0,1.885995030E0
3.825117672E1,1.319424272E0,2.009362459E0,1.990454435E0
3.827105787E1,1.284804225E0,1.547783613E0,1.998443723E0
3.829094240E1,1.272554040E0,3.437373936E-1,2.184460163E0
3.831084350E1,1.331674457E0,-1.239798069E0,2.584721327E0
3.833076100E1,1.474548817E0,-2.514216185E0,2.985581875E0
3.835063370E1,1.879603624E0,-3.274792671E0,3.453019381E0
3.837054553E1,2.464882612E0,-3.749154091E0,4.067525864E0
3.839041594E1,3.136445522E0,-4.039164066E0,4.716186047E0
3.841030397E1,3.810138702E0,-3.938898802E0,5.139948845E0
3.843022292E1,4.350611210E0,-2.770071983E0,5.243875980E0
3.845008506E1,4.576041222E0,-1.637129933E-1,5.010989189E0
3.846999933E1,4.310665131E0,3.259213686E0,4.340425014E0
3.848988162E1,3.544696093E0,5.781419277E0,3.159880638E0
3.850977870E1,2.546972275E0,5.798995495E0,1.874277472E0
3.852969990E1,1.929203629E0,3.653682709E0,7.794842720E-1
3.854957600E1,1.291195631E0,2.021080017E0,-3.376788795E-1
3.856943782E1,-1.113168478E0,3.331183434E0,-2.233061314E0
3.858932917E1,-6.745388508E0,5.534617901E0,-5.020642757E0
3.860922990E1,-1.310462952E1,2.409623623E0,-6.400585651E0
3.862912912E1,-1.574081516E1,-7.228271961E-1,-6.173491478E0
3.864901058E1,-1.536292362E1,4.567186534E-1,-4.801005363E0
3.866891183E1,-1.333645153E1,3.170200109E0,-4.067059517E0
3.868880183E1,-1.158980179E1,4.507533550E0,-4.768515587E0
3.870866350E1,-8.962671280E0,3.876982212E0,-5.750327587E0
3.872859313E1,-5.572766781E0,2.000307798E0,-6.621754646E0
3.874848850E1,-2.711617231E0,6.324821152E-3,-6.425086021E0
3.876836303E1,-1.349317312E0,-1.356041670E0,-5.757784367E0
3.878823730E1,-8.429322243E-1,-2.325004339E0,-4.872442245E0
3.880813183E1,-1.841521561E-1,-2.876129150E0,-4.009537220E0
3.882802022E1,6.643725038E-1,-2.701297760E0,-3.317668200E0
3.884789454E1,1.387133121E0,-1.890588880E0,-2.770804167E0
3.886780975E1,1.971280336E0,-9.583768249E-1,-2.439849615E0
3.888770579E1,2.476067543E0,-2.580527067E-1,-2.219146729E0
3.890760141E1,3.079388857E0,5.649063587E-1,-2.039055824E0
3.892754495E1,3.988698483E0,2.010960102E0,-1.871148348E0
3.894736464E1,4.835625172E0,3.754946470E0,-1.658434629E0
3.896724396E1,5.104796410E0,4.665321350E0,-1.293858647E0
3.898716495E1,4.937954426E0,4.580036163E0,-6.548519731E-1
3.900704636E1,4.599543095E0,4.125913620E0,-4.134435579E-2
3.902695058E1,4.157138348E0,3.639768124E0,1.787594110E-1
3.904681990E1,3.598556995E0,2.923998117E0,2.390116602E-1
3.906672808E1,3.001560450E0,2.182063341E0,4.053211510E-1
3.908660386E1,2.373206139E0,2.072810411E0,4.276910722E-1
3.910656938E1,1.827407241E0,2.646305084E0,1.814225018E-1
3.912640100E1,1.307706714E0,3.297096014E0,-4.454005510E-2
3.914627214E1,9.069127440E-1,3.524656296E0,5.033225939E-2
3.916618199E1,6.760900617E-1,3.442566872E0,3.131119311E-1
3.918607798E1,6.393395662E-1,3.316270113E0,4.629103243E-1
3.920596553E1,6.212306023E-1,3.145167112E0,4.452674091E-1
3.922584272E1,5.599130988E-1,2.883452654E0,4.058537781E-1
3.924575313E1,5.093145370E-1,2.579128981E0,4.015928507E-1
3.926566256E1,5.354127288E-1,2.263087511E0,4.351477027E-1
3.928553683E1,5.679023266E-1,1.945381761E0,4.842149913E-1
3.930540199E1,5.455324650E-1,1.773213506E0,5.119110346E-1
3.932531209E1,4.181705415E-1,1.741256475E0,4.666386545E-1
3.934519126E1,2.779592276E-1,1.648514628E0,3.642431200E-1
3.936509589E1,1.729672104E-1,1.339929938E0,2.907420397E-1
3.938495360E1,6.584471464E-2,8.670997024E-1,2.384790480E-1
3.940487162E1,-3.914731368E-2,4.252942801E-1,1.441393495E-1
3.942474261E1,-1.228346825E-1,1.353511661E-1,-4.061201122E-3
3.944462688E1,-1.681736708E-1,-6.777545065E-2,-1.463363916E-1
3.946453001E1,-2.059894353E-1,-2.639114857E-1,-2.593176663E-1
3.948443902E1,-2.651764452E-1,-4.440690279E-1,-3.579182923E-1
3.950433256E1,-3.318201005E-1,-6.081814766E-1,-4.410730600E-1
3.952422600E1,-3.866795897E-1,-7.851433158E-1,-5.258256793E-1
3.954412058E1,-4.298880994E-1,-9.115065932E-1,-6.345459819E-1
3.956397391E1,-4.474644363E-1,-9.791488647E-1,-7.390053868E-1
3.958387995E1,-4.703669548E-1,-1.094859838E0,-7.875400782E-1
3.960375969E1,-5.098471642E-1,-1.280343533E0,-7.736920714E-1
3.962370808E1,-5.359453559E-1,-1.406640172E0,-7.502569556E-1
3.964359949E1,-5.455324650E-1,-1.351248145E0,-7.667680383E-1
3.966346579E1,-5.332822800E-1,-1.199319243E0,-8.077794909E-1
3.968332204E1,-5.210320950E-1,-1.147588849E0,-7.965945601E-1
3.970321740E1,-5.157059431E-1,-1.229145765E0,-7.256900072E-1
3.972310251E1,-4.900737703E-1,-1.284604430E0,-6.585803032E-1
3.974299824E1,-4.463992119E-1,-1.227547884E0,-6.345459819E-1
3.976289475E1,-3.994623721E-1,-1.140664816E0,-6.127087474E-1
3.978279620E1,-3.637770712E-1,-1.069760323E0,-5.573166013E-1
3.980267761E1,-3.408745527E-1,-9.856068492E-1,-4.959991276E-1
3.982254798E1,-3.211011887E-1,-8.778851628E-1,-4.261597991E-1
3.984247162E1,-2.923398912E-1,-7.435992360E-1,-3.414071798E-1
3.986233469E1,-2.571871877E-1,-5.953986645E-1,-2.609155178E-1
3.988224495E1,-2.107829899E-1,-4.541887343E-1,-1.782933772E-1
3.990212568E1,-1.601844132E-1,-3.320863843E-1,-9.840089828E-2
3.992202693E1,-1.169759035E-1,-2.132463306E-1,2.663082560E-4
3.994192475E1,-7.383396477E-2,-6.244928762E-2,1.132475883E-1
3.996181641E1,-1.464695390E-2,1.166430190E-1,1.916087866E-1
3.998170230E1,7.276873291E-2,2.691044807E-1,2.651098669E-1
4.000161412E1,2.081198990E-1,3.820857704E-1,3.685040474E-1
4.002150954E1,4.149082601E-1,4.561860561E-1,4.751605093E-1
4.004137631E1,6.675682068E-1,4.700340629E-1,5.753589869E-1
4.006125772E1,9.170324802E-1,4.279573560E-1,6.830140948E-1
4.008114594E1,1.133940578E0,3.591832519E-1,8.071803451E-1
4.010101928E1,1.269890904E0,3.709008098E-1,9.766855240E-1
4.012094829E1,1.354110956E0,7.647707462E-1,1.157375693E0
4.014082902E1,1.380209088E0,1.338332176E0,1.346055031E0
4.016071995E1,1.322087288E0,1.508836031E0,1.602443337E0
4.018061089E1,1.235204220E0,1.213034153E0,1.922745585E0
4.020050277E1,1.228812814E0,8.026530743E-1,2.256429911E0
4.022038615E1,1.350382566E0,7.088459730E-1,2.449370146E0
4.024026188E1,1.499049187E0,7.115091085E-1,2.428598166E0
4.026018381E1,1.551844835E0,2.483324558E-1,2.592777252E0
4.028003824E1,1.736263275E0,-4.818847775E-1,3.103889227E0
4.029992412E1,2.021412849E0,-9.445288181E-1,3.518597841E0
4.031984506E1,2.469143629E0,-1.256309152E0,3.940163851E0
4.033971980E1,2.993038416E0,-1.588395596E0,4.655467987E0
4.035964199E1,3.565001965E0,-1.551112413E0,5.355259418E0
4.037955313E1,4.028711319E0,-9.178979993E-1,5.524231911E0
4.039940303E1,4.372448444E0,6.604444981E-2,5.077566147E0
4.041928594E1,4.541954041E0,1.120824814E0,4.654935360E0
