"Time (s)","Gyroscope x (rad/s)","Gyroscope y (rad/s)","Gyroscope z (rad/s)"
4.142189600E-2,-2.309558392E-1,-8.057821989E-1,-2.689713426E-2
6.131314600E-2,-1.840855777E-1,-7.397377491E-1,-7.323476672E-2
8.121913500E-2,-1.926074475E-1,-6.363435984E-1,-1.318891644E-1
1.010613230E-1,-1.675078869E-1,-4.977301359E-1,-1.985328048E-1
1.209710100E-1,-5.665707961E-2,-3.847488463E-1,-2.288919389E-1
1.408466870E-1,1.010639817E-1,-2.659088075E-1,-2.571206093E-1
1.607170520E-1,2.460688353E-1,-3.082518093E-2,-3.525255620E-1
1.806283020E-1,3.755612075E-1,2.996633649E-1,-5.081827044E-1
2.005276250E-1,5.455990434E-1,6.263570189E-1,-6.696987152E-1
2.203951250E-1,7.609758377E-1,8.571797013E-1,-8.194305301E-1
2.403024690E-1,9.592423439E-1,8.827452660E-1,-9.479242563E-1
2.602035100E-1,1.134073734E0,6.700981259E-1,-1.063035965E0
2.800958020E-1,1.272087932E0,2.852161527E-1,-1.095525622E0
2.999539790E-1,1.311568141E0,-9.746882319E-2,-1.007044673E0
3.198711150E-1,1.252913713E0,-2.999962568E-1,-8.466604948E-1
3.397504370E-1,1.134073734E0,-3.111811876E-1,-6.830140948E-1
3.596459060E-1,9.816122055E-1,-2.269612104E-1,-5.507920384E-1
3.795466350E-1,8.115743995E-1,-1.619154215E-1,-4.218322635E-1
3.994406980E-1,5.999925137E-1,-1.726343334E-1,-2.902094126E-1
4.193146040E-1,3.921388984E-1,-2.312221378E-1,-1.729006320E-1
4.392481460E-1,2.242315561E-1,-2.952027023E-1,-8.228924870E-2
4.591014790E-1,8.934641629E-2,-3.298227787E-1,-3.701684624E-2
4.789957500E-1,-1.830869168E-2,-3.202356696E-1,-1.624480449E-2
4.988987190E-1,-8.441971987E-2,-2.616478503E-1,-1.091863867E-2
5.187732500E-1,-9.720251709E-2,-1.677742004E-1,-7.190322969E-3
5.386790310E-1,-6.624417752E-2,-3.029256500E-2,-2.330197254E-3
5.585818440E-1,-1.990654133E-2,1.456040442E-1,1.790923066E-2
5.784681460E-1,1.691057347E-2,3.316203654E-1,2.696371078E-2
5.983553850E-1,5.153064802E-2,4.915384650E-1,5.126433913E-3
6.182748650E-1,1.176416725E-1,6.279548407E-1,-4.394086078E-2
6.381395000E-1,1.751642525E-1,7.313490510E-1,-1.041931063E-1
6.580329900E-1,1.868818253E-1,7.745575905E-1,-1.659766138E-1
6.779188750E-1,1.922079772E-1,7.878729701E-1,-2.193048447E-1
6.978382500E-1,2.002638131E-1,8.336780071E-1,-2.800231278E-1
7.177239270E-1,1.629140824E-1,8.453955650E-1,-3.088510036E-1
7.376160100E-1,6.484606117E-2,7.553167939E-1,-2.517944574E-1
7.574960620E-1,-7.050511241E-2,6.396724582E-1,-1.659766138E-1
7.773921560E-1,-2.261622846E-1,5.570502877E-1,-9.453943372E-2
7.972910100E-1,-3.508611321E-1,4.984624684E-1,-4.181039706E-2
8.172035100E-1,-4.260266423E-1,4.382102489E-1,2.463351469E-3
8.370673120E-1,-4.979964495E-1,3.507945538E-1,5.732285231E-2
8.569511670E-1,-5.827490687E-1,2.202369273E-1,1.372819096E-1
8.768698650E-1,-6.605776548E-1,9.547150880E-2,2.358825356E-1
8.967497600E-1,-7.031869292E-1,7.256899774E-2,3.126458824E-1
9.166105420E-1,-7.106435895E-1,1.514628232E-1,3.633110523E-1
9.365254900E-1,-6.920019984E-1,2.814878225E-1,3.814199865E-1
9.564184060E-1,-6.568493247E-1,4.051880240E-1,3.654415011E-1
9.763016350E-1,-6.045863032E-1,4.851470590E-1,3.227656186E-1
9.962555940E-1,-5.278229713E-1,5.075169802E-1,2.603828907E-1
1.016102000E0,-4.196352363E-1,4.770912528E-1,1.980667710E-1
1.035989917E0,-2.858819067E-1,4.307536185E-1,1.436733007E-1
1.055887260E0,-1.456706226E-1,4.174381793E-1,6.637733430E-2
1.075764031E0,-6.058512721E-3,4.328840673E-1,-8.255556226E-3
1.095663406E0,1.240330711E-1,4.323514402E-1,-6.364767253E-2
1.115560750E0,2.364817262E-1,3.694361150E-1,-1.052583382E-1
1.135423979E0,3.372128308E-1,2.569874525E-1,-1.244325340E-1
1.155323875E0,4.166392684E-1,1.285603046E-1,-1.270956099E-1
1.175264500E0,4.741618633E-1,-6.324821152E-3,-1.143128201E-1
1.195099917E0,5.093811154E-1,-1.406107545E-1,-8.175663650E-2
1.215017469E0,5.301531553E-1,-2.301569134E-1,-6.471290439E-2
1.234906010E0,5.333488584E-1,-2.754958868E-1,-7.323476672E-2
1.254784656E0,5.115115643E-1,-3.447360396E-1,-6.045197323E-2
1.274677937E0,4.613790512E-1,-4.545882046E-1,-3.701684624E-2
1.294553771E0,3.958672285E-1,-5.973960161E-1,-1.731003635E-2
1.314467677E0,3.404085338E-1,-7.450639009E-1,-6.058512721E-3
1.334373562E0,3.079189062E-1,-8.617734909E-1,2.463351469E-3
1.354267052E0,2.946034968E-1,-9.278845191E-1,8.655018173E-4
1.374156323E0,2.951361239E-1,-9.470587373E-1,-1.731003635E-2
1.394068042E0,3.127124608E-1,-9.422652125E-1,-3.808208182E-2
1.413932312E0,3.388106823E-1,-9.241562486E-1,-6.418029219E-2
1.433819552E0,3.398759067E-1,-9.017197490E-1,-1.073888019E-1
1.453713875E0,3.313540518E-1,-9.124386907E-1,-1.462698132E-1
1.473577365E0,3.744959831E-1,-9.603741765E-1,-1.718354076E-1
1.493470542E0,4.464657903E-1,-9.827440381E-1,-1.980001926E-1
1.513358771E0,4.806198180E-1,-9.113734365E-1,-2.549901605E-1
1.533280177E0,4.886090755E-1,-7.493248582E-1,-3.136445582E-1
1.553195333E0,4.939352274E-1,-5.744934678E-1,-3.445363045E-1
1.573046271E0,5.163051486E-1,-4.358800352E-1,-3.450689316E-1
1.592951323E0,5.205660462E-1,-3.581180274E-1,-3.061879277E-1
1.612851583E0,4.880764484E-1,-3.197030723E-1,-2.576532364E-1
1.632728042E0,4.352808297E-1,-3.074528873E-1,-2.150439173E-1
1.652620594E0,3.601153493E-1,-3.074528873E-1,-1.697049290E-1
1.672512000E0,3.025927544E-1,-2.760285139E-1,-1.382805556E-1
1.692393667E0,2.615146935E-1,-2.189719677E-1,-1.036604866E-1
1.712313510E0,1.852839738E-1,-1.480673850E-1,-7.003907114E-2
1.732250125E0,8.615072072E-2,-8.734910935E-2,-2.157096937E-2
1.752083042E0,-1.990654133E-2,-3.881442919E-2,3.495295718E-2
1.771984656E0,-1.451379955E-1,2.569874749E-2,8.987903595E-2
1.791863198E0,-2.725664973E-1,1.023955271E-1,1.463363916E-1
1.811752000E0,-3.962001204E-1,1.759631783E-1,2.097843289E-1
1.831641323E0,-4.884093404E-1,2.383458912E-1,2.732322812E-1
1.851514240E0,-5.704988837E-1,3.289572597E-1,3.211677670E-1
1.871420542E0,-6.419360638E-1,4.344819188E-1,3.552552164E-1
1.891311167E0,-7.069152594E-1,5.442674756E-1,3.633110523E-1
1.911226115E0,-7.506564260E-1,6.418029070E-1,3.595161438E-1
1.931088354E0,-7.698305845E-1,7.212293148E-1,3.547225893E-1
1.950990229E0,-7.682327628E-1,8.011884093E-1,3.621792197E-1
1.970880229E0,-7.410693169E-1,8.864735961E-1,3.621792197E-1
1.990772885E0,-6.994586587E-1,9.595086575E-1,3.483312130E-1
2.010655698E0,-6.499252915E-1,1.027683616E0,3.232982159E-1
2.030565073E0,-6.072493792E-1,1.083674908E0,3.083849549E-1
2.050433042E0,-5.598465204E-1,1.106044769E0,2.961347699E-1
2.070346323E0,-5.182358623E-1,1.086870551E0,2.598502934E-1
2.090237729E0,-4.804200828E-1,1.033542395E0,2.001972347E-1
2.110130646E0,-4.143090546E-1,9.786828160E-1,1.213034093E-1
2.130010958E0,-3.370130956E-1,8.949954510E-1,5.359453708E-2
2.149886375E0,-2.768274248E-1,7.377404571E-1,2.270277962E-2
2.169789656E0,-2.282927483E-1,5.272237659E-1,-6.058512721E-3
2.189692885E0,-1.766289473E-1,3.028590679E-1,-2.636451647E-2
2.209557417E0,-1.296921223E-1,1.029281393E-1,-2.796236612E-2
2.229460802E0,-8.974587917E-2,-4.307536036E-2,-2.210358530E-2
2.249341792E0,-4.014597088E-2,-1.352845877E-1,-1.677742042E-2
2.269254240E0,1.531272475E-2,-1.902106702E-1,-1.731003635E-2
2.289158562E0,5.792204663E-2,-2.195045799E-1,-3.648423031E-2
2.309023979E0,9.467258304E-2,-2.680392563E-1,-7.749570161E-2
2.328914917E0,1.245656833E-1,-3.842162490E-1,-1.175085157E-1
2.348826896E0,1.820882708E-1,-5.264914036E-1,-1.723680198E-1
2.368700750E0,2.609820962E-1,-6.229615808E-1,-2.294245660E-1
2.388603302E0,3.207017183E-1,-6.374087930E-1,-2.886115611E-1
2.408493198E0,3.681045771E-1,-6.363435984E-1,-3.450689316E-1
2.428409240E0,4.091826379E-1,-6.709636450E-1,-3.764933050E-1
2.448295385E0,4.746944606E-1,-7.349442244E-1,-3.829512596E-1
2.468200594E0,5.434685946E-1,-7.855427861E-1,-3.882774413E-1
2.488049708E0,5.983946323E-1,-8.079126477E-1,-3.818860352E-1
2.507940750E0,6.420692205E-1,-8.218272924E-1,-3.813534081E-1
2.527849552E0,6.847451329E-1,-8.766867518E-1,-3.834838867E-1
2.547725281E0,7.417350411E-1,-9.593089223E-1,-3.776251078E-1
2.567641427E0,7.892045379E-1,-9.992551804E-1,-3.663735688E-1
2.587518979E0,7.961285114E-1,-9.513196945E-1,-3.535907865E-1
2.607427885E0,7.817478776E-1,-8.340774775E-1,-3.338839710E-1
2.627314656E0,7.609758377E-1,-7.204970121E-1,-2.939377427E-1
2.647204969E0,7.145716548E-1,-6.266899109E-1,-2.278267145E-1
2.667101948E0,6.239602566E-1,-5.398734212E-1,-1.531938314E-1
2.686983198E0,5.163051486E-1,-4.833494723E-1,-8.548495173E-2
2.706894135E0,4.139761925E-1,-4.545882046E-1,-3.595161438E-2
2.726764604E0,3.292235732E-1,-4.209667742E-1,5.659050308E-3
2.746641896E0,2.343512625E-1,-3.383446336E-1,4.507267103E-2
2.766545646E0,1.155112088E-1,-2.083196342E-1,9.413997084E-2
2.786450385E0,-6.058512721E-3,-6.384740770E-2,1.500647068E-1
2.806365542E0,-1.153114736E-1,6.564498693E-2,1.964689195E-1
2.826281948E0,-2.107164115E-1,1.477345079E-1,2.321542203E-1
2.846109604E0,-2.922733128E-1,1.823545843E-1,2.742975056E-1
2.865995958E0,-3.748954535E-1,1.908764392E-1,3.270265460E-1
2.885885750E0,-4.724308550E-1,1.860828996E-1,3.920723200E-1
2.905787312E0,-5.609117746E-1,1.946047544E-1,4.501275420E-1
2.925677521E0,-6.216300726E-1,2.191716880E-1,5.071840882E-1
2.945580073E0,-6.589797735E-1,2.617810071E-1,5.594470501E-1
2.965484552E0,-6.797518134E-1,3.108483255E-1,6.079151630E-1
2.985342104E0,-6.824148893E-1,3.539902568E-1,6.345459819E-1
3.005249344E0,-6.664364338E-1,3.924052119E-1,6.324155331E-1
3.025140646E0,-6.322823763E-1,4.222317338E-1,6.079151630E-1
3.045038094E0,-5.758250356E-1,4.360797703E-1,5.685015321E-1
3.064917833E0,-4.995943010E-1,4.275579154E-1,5.364779830E-1
3.084821323E0,-4.073850513E-1,4.259600639E-1,5.125102401E-1
3.104734656E0,-2.949363887E-1,4.627105892E-1,4.736292362E-1
3.124602625E0,-1.680405140E-1,5.213649869E-1,4.187031686E-1
3.144497781E0,-5.665707961E-2,5.708982944E-1,3.541899920E-1
3.164381896E0,4.087831825E-2,5.778889060E-1,2.870802879E-1
3.184295594E0,1.203047559E-1,5.362782478E-1,2.321542203E-1
3.204226583E0,1.740990281E-1,4.984624684E-1,1.788925678E-1
3.224073146E0,2.007964253E-1,5.021907687E-1,1.143793985E-1
3.243954240E0,2.039921284E-1,5.091148019E-1,4.187697172E-2
3.263842000E0,1.932732165E-1,4.803535044E-1,-2.103835158E-2
3.283726896E0,1.709033251E-1,4.046553969E-1,-8.228924870E-2
3.303627104E0,1.394789517E-1,2.948698103E-1,-1.420088708E-1
3.323514292E0,1.176416725E-1,1.802241057E-1,-1.990654171E-1
3.343402052E0,1.096524224E-1,6.724283099E-2,-2.454030514E-1
3.363301115E0,1.064567268E-1,-6.224955618E-2,-2.768274248E-1
3.383208823E0,1.208373681E-1,-2.157762647E-1,-2.907420397E-1
3.403074708E0,1.597183794E-1,-3.484643400E-1,-2.902094126E-1
3.422966010E0,1.985993832E-1,-4.374778867E-1,-2.741643488E-1
3.442894031E0,2.151770741E-1,-5.131760240E-1,-2.352833450E-1
3.462764865E0,2.263620198E-1,-5.659716129E-1,-1.921414137E-1
3.482650229E0,2.641777992E-1,-5.414712429E-1,-1.681070924E-1
3.502541062E0,2.993970513E-1,-4.625774324E-1,-1.649113894E-1
3.522442573E0,2.908086181E-1,-4.471315742E-1,-1.590526104E-1
3.542329552E0,2.780258060E-1,-5.462648273E-1,-1.468024254E-1
3.562245802E0,3.079189062E-1,-6.800181270E-1,-1.420088708E-1
3.582109448E0,3.569196463E-1,-7.642381191E-1,-1.499981284E-1
3.602005750E0,3.841496706E-1,-7.850101590E-1,-1.436067224E-1
3.621913198E0,3.995955288E-1,-7.487922311E-1,-1.382805556E-1
3.641795073E0,4.363460839E-1,-6.587134600E-1,-1.361500919E-1
3.661675177E0,4.714987576E-1,-5.238283277E-1,-1.569221467E-1
3.681565281E0,4.784893692E-1,-4.065861404E-1,-1.915422082E-1
3.701440021E0,4.661726058E-1,-3.404751122E-1,-2.352833450E-1
3.721363198E0,4.597811997E-1,-3.037245572E-1,-2.699034214E-1
3.741270698E0,4.469984174E-1,-2.402766198E-1,-2.912746668E-1
3.761117625E0,4.070521593E-1,-1.448716968E-1,-2.966008186E-1
3.781006219E0,3.409411311E-1,-4.041227698E-2,-2.854158878E-1
3.800927885E0,2.726996541E-1,5.925358832E-2,-2.709686458E-1
3.820796115E0,2.151770741E-1,1.477345079E-1,-2.358159572E-1
3.840702781E0,1.458703429E-1,2.292914093E-1,-1.808898896E-1
3.860574604E0,4.300878197E-2,2.916075289E-1,-1.254977584E-1
3.880489344E0,-6.784202904E-2,3.241637349E-1,-7.696308941E-2
3.900392417E0,-1.723680198E-1,3.412074447E-1,-1.464695390E-2
3.920283927E0,-2.741643488E-1,3.603816330E-1,4.720313847E-2
3.940178562E0,-3.626452684E-1,3.881442845E-1,1.015966013E-1
3.960037677E0,-4.457334578E-1,4.126446545E-1,1.580539495E-1
3.979925437E0,-5.246272683E-1,4.424711764E-1,2.129800320E-1
3.999841323E0,-5.886078477E-1,4.754934013E-1,2.550567389E-1
4.019722677E0,-6.403381824E-1,5.075169802E-1,2.934716940E-1
4.039618510E0,-6.845453978E-1,5.298868418E-1,3.328853250E-1
4.059483458E0,-7.090457082E-1,5.490610600E-1,3.547225893E-1
4.079378667E0,-7.101109624E-1,5.746932030E-1,3.611139953E-1
4.099270437E0,-6.893389225E-1,6.007914543E-1,3.600487709E-1
4.119182260E0,-6.483274698E-1,6.300853491E-1,3.440702558E-1
4.139070750E0,-5.886078477E-1,6.620423198E-1,3.142437339E-1
4.158968927E0,-5.081161261E-1,7.063160539E-1,2.711018026E-1
4.178876062E0,-4.249613881E-1,7.494580150E-1,2.177735716E-1
4.198745073E0,-3.615800440E-1,7.521210909E-1,1.766955256E-1
4.218637000E0,-3.087844253E-1,7.127074599E-1,1.330209672E-1
4.238543615E0,-2.394776940E-1,6.561835408E-1,8.987903595E-2
4.258432833E0,-1.713027805E-1,6.087806821E-1,4.081173986E-2
4.278345073E0,-1.078548431E-1,5.511915088E-1,-7.190322969E-3
4.298222781E0,-5.612446368E-2,4.738955498E-1,-4.553871229E-2
4.318074396E0,-7.656362373E-3,3.752949238E-1,-8.761541545E-2
4.337987365E0,3.608476743E-2,2.468677461E-1,-1.025952548E-1
4.357895281E0,7.549838722E-2,1.280276924E-1,-1.116497368E-1
4.377756271E0,1.005313694E-1,3.262276202E-2,-1.249651462E-1
4.397676844E0,1.187069044E-1,-5.159722641E-2,-1.276282370E-1
4.417573510E0,1.416094154E-1,-1.043928340E-1,-1.270956099E-1
4.437466323E0,1.597183794E-1,-1.539261788E-1,-1.079214215E-1
4.457355073E0,1.613162309E-1,-2.227002829E-1,-8.122401685E-2
4.477213615E0,1.575879157E-1,-3.191704452E-1,-6.950645149E-2
4.497133615E0,1.746316403E-1,-4.241624773E-1,-6.684337556E-2
4.517023927E0,2.039921284E-1,-4.945344329E-1,-6.950645149E-2
4.536926948E0,2.167749256E-1,-5.078498721E-1,-8.655018359E-2
4.556816115E0,2.242315561E-1,-5.019910336E-1,-1.116497368E-1
4.576707990E0,2.402100414E-1,-5.110455155E-1,-1.452045739E-1
4.596609969E0,2.593842447E-1,-5.185021758E-1,-1.942718774E-1
4.616491010E0,2.700365782E-1,-5.025236607E-1,-2.443378270E-1
4.636374812E0,2.801562846E-1,-4.742949903E-1,-2.870137095E-1
4.656277885E0,2.849498391E-1,-4.625774324E-1,-3.258947134E-1
4.676198719E0,2.956687510E-1,-4.593817294E-1,-3.583843410E-1
4.696035750E0,3.265604973E-1,-4.193689227E-1,-3.685040474E-1
4.715928979E0,3.606479466E-1,-3.303554058E-1,-3.610474169E-1
4.735856062E0,3.675719798E-1,-2.248307467E-1,-3.424058259E-1
4.755726271E0,3.595827222E-1,-1.432738453E-1,-3.093836308E-1
4.775620281E0,3.483977616E-1,-8.095771074E-2,-2.688381970E-1
4.795489187E0,3.164407909E-1,-4.094489291E-2,-2.230331600E-1
4.815376479E0,2.663082480E-1,-2.230331674E-2,-1.686397046E-1
4.835277677E0,2.194380015E-1,3.262276063E-3,-1.302913129E-1
4.855205229E0,1.575879157E-1,4.806863889E-2,-9.826774895E-2
4.875053823E0,7.869409025E-2,1.104513481E-1,-6.844121963E-2
4.894976010E0,-1.458037738E-2,1.653108448E-1,-4.394086078E-2
4.914862677E0,-1.174419373E-1,1.844850481E-1,-3.275591508E-2
4.934761427E0,-2.181730419E-1,1.535932869E-1,-1.784265228E-2
4.954642677E0,-3.082517982E-1,9.014534205E-2,5.659050308E-3
4.974517729E0,-3.962001204E-1,4.860125855E-2,2.163754590E-2
4.994436635E0,-4.718982279E-1,4.700340703E-2,3.921389207E-2
5.014341531E0,-5.310186744E-1,6.990591437E-2,6.158378348E-2
5.034248354E0,-5.747597814E-1,9.280842543E-2,8.501891047E-2
5.054107260E0,-6.013906002E-1,1.013302878E-1,1.031944528E-1
5.073971167E0,-5.880752206E-1,7.256899774E-2,1.234338731E-1
5.093899240E0,-5.363448262E-1,2.782921307E-2,1.442059278E-1
5.113778667E0,-4.729634523E-1,1.131810131E-3,1.591191888E-1
5.133658979E0,-4.057871997E-1,-2.596505452E-3,1.842187345E-1
5.153546896E0,-3.481980562E-1,4.487293959E-2,2.140452564E-1
5.173452573E0,-2.810883522E-1,1.519954354E-1,2.177735716E-1
5.193332260E0,-2.155099511E-1,2.596505582E-1,2.342846841E-1
5.213236219E0,-1.734332591E-1,3.326855898E-1,2.412087023E-1
5.233128198E0,-1.483336985E-1,3.342834413E-1,2.369477749E-1
5.253008094E0,-1.190397888E-1,2.830856740E-1,2.097843289E-1
5.272916323E0,-9.453943372E-2,2.229000032E-1,1.649779677E-1
5.292817469E0,-7.689651102E-2,1.802241057E-1,1.159772426E-1
5.312697990E0,-6.730940938E-2,1.626477689E-1,6.744256616E-2
5.332566167E0,-5.612446368E-2,1.509302109E-1,2.270277962E-2
5.352451375E0,-3.695027158E-2,1.386800259E-1,-3.169068322E-2
5.372354812E0,-2.310224064E-2,1.088534966E-1,-8.388710022E-2
5.392281687E0,-2.330197254E-3,5.978620425E-2,-1.223020703E-1
5.412204865E0,1.637795754E-2,1.231675688E-2,-1.489328891E-1
5.432053667E0,2.703028731E-2,-4.041227698E-2,-1.537264436E-1
5.451926583E0,3.821523488E-2,-9.800143540E-2,-1.494655013E-1
5.471826635E0,5.259587988E-2,-1.576544940E-1,-1.393457949E-1
5.491716219E0,7.177007198E-2,-2.184393406E-1,-1.244325340E-1
5.511578719E0,9.467258304E-2,-2.680392563E-1,-1.105845049E-1
5.531496531E0,1.176416725E-1,-3.021267056E-1,-9.347419441E-2
5.551380906E0,1.325549334E-1,-3.133116663E-1,-8.708280325E-2
5.571282677E0,1.464029700E-1,-3.042571843E-1,-8.708280325E-2
5.591169969E0,1.693054736E-1,-2.909417748E-1,-9.240896255E-2
5.611055594E0,1.911427528E-1,-2.701697350E-1,-1.164432839E-1
5.630943823E0,2.146444470E-1,-2.472006381E-1,-1.569221467E-1
5.650836896E0,2.322207987E-1,-2.179067284E-1,-2.081198990E-1
5.670747052E0,2.364817262E-1,-1.832866520E-1,-2.608489394E-1
5.690631115E0,2.130466104E-1,-1.715690941E-1,-3.008617461E-1
5.710518562E0,1.991985738E-1,-1.896780580E-1,-3.242968917E-1
5.730401896E0,2.039921284E-1,-2.019282281E-1,-3.328187466E-1
5.750293719E0,2.077204436E-1,-1.848845035E-1,-3.365470469E-1
5.770211427E0,2.146444470E-1,-1.774278730E-1,-3.216337860E-1
5.790106896E0,2.391448170E-1,-1.715690941E-1,-2.966008186E-1
5.809997990E0,2.726996541E-1,-1.443390697E-1,-2.725664973E-1
5.829864448E0,2.908086181E-1,-1.027949899E-1,-2.464682907E-1
5.849748250E0,2.919404209E-1,-7.935985923E-2,-2.240983993E-1
5.869651740E0,2.902759910E-1,-8.575125784E-2,-2.049241960E-1
5.889544552E0,2.726996541E-1,-1.043928340E-1,-1.840855777E-1
5.909444917E0,2.428731322E-1,-9.800143540E-2,-1.643787771E-1
5.929344552E0,2.055899799E-1,-7.449973375E-2,-1.430741102E-1
5.949213510E0,1.559900641E-1,-6.810833514E-2,-1.079214215E-1
5.969120906E0,1.053249165E-1,-6.651048362E-2,-7.270215452E-2
5.989018094E0,4.993279651E-2,-5.585815758E-2,-5.619104207E-2
6.008904552E0,-5.525896326E-3,-5.479292199E-2,-4.074516147E-2
6.028790802E0,-7.583127916E-2,-7.776200771E-2,8.655018173E-4
6.048661896E0,-1.371487528E-1,-7.077141851E-2,2.589847706E-2
6.068568904E0,-1.766289473E-1,-4.733629152E-2,4.773575440E-2
6.088458956E0,-2.085859478E-1,-2.230331674E-2,8.615072072E-2
6.108348071E0,-2.357493788E-1,1.824211515E-2,1.085206121E-1
6.128249842E0,-2.549235821E-1,5.605788901E-2,1.287600398E-1
6.148121925E0,-2.581192851E-1,1.007976755E-1,1.511299312E-1
6.168027915E0,-2.634454370E-1,1.807567328E-1,1.703041345E-1
6.187908383E0,-2.656424940E-1,2.814878225E-1,1.756303012E-1
6.207793436E0,-2.570540309E-1,3.657078147E-1,1.671084315E-1
6.227670571E0,-2.378798425E-1,4.115794003E-1,1.548582464E-1
6.247609008E0,-2.085859478E-1,4.307536185E-1,1.335535944E-1
6.267467081E0,-1.723680198E-1,4.435364008E-1,1.165098622E-1
6.287386040E0,-1.408770680E-1,4.621779919E-1,1.111836955E-1
6.307256404E0,-1.296921223E-1,4.862123132E-1,1.047922969E-1
6.327150311E0,-1.355509013E-1,4.904732406E-1,9.147688746E-2
6.347054686E0,-1.488663107E-1,4.493951797E-1,9.200949967E-2
6.366946352E0,-1.643121988E-1,3.779579997E-1,1.031944528E-1
6.386829008E0,-1.840855777E-1,3.033916950E-1,1.260969639E-1
6.406710675E0,-2.144447267E-1,2.511286736E-1,1.612496525E-1
6.426639269E0,-2.549235821E-1,2.330197245E-1,1.985993832E-1
6.446506404E0,-2.885449827E-1,2.181064636E-1,2.305563688E-1
6.466413227E0,-3.077192008E-1,1.866155118E-1,2.598502934E-1
6.486304477E0,-3.247629106E-1,1.509302109E-1,2.721670270E-1
6.506246717E0,-3.428718746E-1,1.061238423E-1,2.657090724E-1
6.526085519E0,-3.492632806E-1,5.392742157E-2,2.460022569E-1
6.545959425E0,-3.338173926E-1,1.551245619E-2,2.188388109E-1
6.565859373E0,-3.039908707E-1,8.588441648E-3,1.863491982E-1
6.585766665E0,-2.704360485E-1,1.983996481E-2,1.591191888E-1
6.605661873E0,-2.288253754E-1,4.434032366E-2,1.282274276E-1
6.625554581E0,-1.968683749E-1,9.121058136E-2,9.200949967E-2
6.645443852E0,-1.648448110E-1,1.424083412E-1,5.572500080E-2
6.665327967E0,-1.286268830E-1,1.791588813E-1,1.737661287E-2
6.685231248E0,-1.041265279E-1,1.967352182E-1,-2.316881903E-2
6.705117706E0,-8.814803511E-2,1.962026060E-1,-6.204982474E-2
6.724991092E0,-6.943988055E-2,1.903438270E-1,-8.655018359E-2
6.744885727E0,-5.292876437E-2,1.839524209E-1,-9.826774895E-2
6.764790779E0,-4.121120274E-2,1.850176603E-1,-1.073888019E-1
6.784672446E0,-2.363485843E-2,1.876807362E-1,-1.180411354E-1
6.804575519E0,-7.323477184E-4,1.701043993E-1,-1.249651462E-1
6.824445154E0,1.744319126E-2,1.306907833E-1,-1.228346825E-1
6.844370050E0,2.383458801E-2,9.440627694E-2,-1.159106717E-1
6.864262186E0,2.276935615E-2,6.617759913E-2,-1.073888019E-1
6.884179008E0,2.117150649E-2,3.049229458E-2,-9.453943372E-2
6.904024738E0,7.789516356E-3,-1.484668534E-2,-6.631075591E-2
6.923898071E0,-1.884130947E-2,-4.893414304E-2,-3.062544949E-2
6.943807238E0,-4.014597088E-2,-8.149032295E-2,5.126433913E-3
6.963695727E0,-5.772231519E-2,-1.214365661E-1,3.974650800E-2
6.983581977E0,-6.837464124E-2,-1.491326243E-1,6.264901906E-2
7.003476925E0,-6.145063043E-2,-1.747647971E-1,7.969274372E-2
7.023372290E0,-3.854811937E-2,-1.971346885E-1,8.235582709E-2
7.043276248E0,8.655018173E-4,-1.976673007E-1,7.170350105E-2
7.063182706E0,4.354140162E-2,-1.661763489E-1,5.892070010E-2
7.083041613E0,7.390054315E-2,-1.155777797E-1,4.294220731E-2
7.102935102E0,8.455286920E-2,-8.521863818E-2,2.376801148E-2
7.122824269E0,9.733566642E-2,-9.107742459E-2,5.126433913E-3
7.142724686E0,1.144459695E-1,-1.107842326E-1,-1.198387146E-2
7.162620102E0,1.325549334E-1,-1.198387146E-1,-3.222329915E-2
7.182510415E0,1.634466946E-1,-1.049254537E-1,-6.311506033E-2
7.202403748E0,1.991985738E-1,-8.681648970E-2,-8.761541545E-2
7.222308956E0,2.380795777E-1,-6.438001990E-2,-9.347419441E-2
7.242206821E0,2.721670270E-1,-8.455286734E-3,-9.400681406E-2
7.262064425E0,2.946034968E-1,5.179695413E-2,-8.335448056E-2
7.281983123E0,3.143103123E-1,5.978620425E-2,-6.311506033E-2
7.301885988E0,3.212343454E-1,-2.123808302E-2,-6.058512721E-3
7.321758904E0,3.185712397E-1,-1.683068126E-1,3.228987753E-2
7.341644008E0,3.127124608E-1,-3.410077095E-1,4.667052254E-2
7.361547446E0,3.015275300E-1,-4.764254689E-1,6.797518581E-2
7.381436456E0,2.737648785E-1,-5.099803209E-1,7.916013151E-2
7.401313800E0,2.359491140E-1,-4.716319144E-1,8.774857223E-2
7.421227290E0,2.007964253E-1,-4.199015498E-1,1.079879999E-1
7.441091092E0,1.778273433E-1,-3.884771764E-1,1.191729456E-1
7.460971040E0,1.703707129E-1,-3.826183975E-1,1.053249165E-1
7.480874998E0,1.772947162E-1,-3.996621072E-1,8.129059523E-2
7.500773436E0,1.932732165E-1,-4.076513648E-1,4.986622185E-2
7.520669581E0,2.093182951E-1,-3.874119222E-1,2.536586113E-2
7.540561873E0,2.268946320E-1,-3.388772607E-1,4.593817517E-3
7.560438175E0,2.466014475E-1,-2.930722237E-1,-2.423405088E-2
7.580341196E0,2.780258060E-1,-2.573203444E-1,-5.672365800E-2
7.600255311E0,3.217669427E-1,-2.088522464E-1,-9.081111848E-2
7.620151561E0,3.478651643E-1,-1.411433816E-1,-1.105845049E-1
7.640002602E0,3.446694613E-1,-5.958647281E-2,-1.238999143E-1
7.659918800E0,3.286909759E-1,2.250304818E-2,-1.345522404E-1
7.679803019E0,3.292235732E-1,9.919982404E-2,-1.425414979E-1
7.699683540E0,3.345497549E-1,1.674413085E-1,-1.547916681E-1
7.719572967E0,3.345497549E-1,1.786262691E-1,-1.681070924E-1
7.739462863E0,3.446694613E-1,1.333538592E-1,-1.851508170E-1
7.759355779E0,3.473325372E-1,6.191666797E-2,-1.964023411E-1
7.779275519E0,3.185712397E-1,5.925358739E-3,-1.771615744E-1
7.799140258E0,2.620473206E-1,5.925358739E-3,-1.590526104E-1
7.819056092E0,1.799578071E-1,2.942706272E-2,-1.393457949E-1
7.838945831E0,9.413997084E-2,3.049229458E-2,-8.655018359E-2
7.858844946E0,3.395430371E-2,1.125152409E-2,-3.488638252E-2
7.878722706E0,-4.993279930E-3,-4.201012850E-2,8.854749613E-3
7.898594113E0,-3.695027158E-2,-1.304910481E-1,5.039883777E-2
7.918494842E0,-6.517894566E-2,-1.870149672E-1,6.850779802E-2
7.938384217E0,-8.228924870E-2,-1.613828093E-1,4.347482324E-2
7.958307915E0,-8.335448056E-2,-8.095771074E-2,-1.091863867E-2
7.978212133E0,-7.796174288E-2,1.551245619E-2,-7.110430300E-2
7.998054842E0,-5.932016298E-2,1.093861163E-1,-1.446719617E-1
8.017969686E0,-2.683055587E-2,1.717022508E-1,-2.081198990E-1
8.037838800E0,2.995967865E-3,1.930069029E-1,-2.485987544E-1
8.057731561E0,2.170412242E-2,2.037258148E-1,-2.746969759E-1
8.077621196E0,2.916075476E-2,2.372806519E-1,-2.757622004E-1
8.097498800E0,3.555215150E-2,2.985981405E-1,-2.454030514E-1
8.117389008E0,3.821523488E-2,3.742296696E-1,-2.027937323E-1
8.137311873E0,3.981308267E-2,4.153077304E-1,-1.526612043E-1
8.157187811E0,3.448691964E-2,4.094489515E-1,-9.993217140E-2
8.177096040E0,2.276935615E-2,3.886769116E-1,-5.565842614E-2
8.196976352E0,-4.993279930E-3,3.683708906E-1,-1.358172111E-2
8.216859321E0,-5.878754705E-2,3.422726989E-1,3.601819277E-2
8.236734946E0,-1.286268830E-1,3.119135499E-1,8.129059523E-2
8.256640154E0,-2.165751904E-1,2.734985650E-1,1.202381775E-1
8.276546040E0,-3.055887222E-1,2.234326303E-1,1.596518010E-1
8.296441456E0,-3.812868595E-1,1.775610298E-1,1.884796619E-1
8.316319425E0,-4.596480429E-1,1.253646165E-1,2.108495682E-1
8.336254946E0,-5.342143774E-1,6.191666797E-2,2.396108508E-1
8.356103175E0,-5.848795176E-1,1.717688330E-2,2.566545904E-1
8.376018019E0,-6.115103364E-1,-1.378145255E-2,2.635785937E-1
8.395904373E0,-6.333476305E-1,-5.426030606E-2,2.790910602E-1
8.415809477E0,-6.664364338E-1,-9.640359133E-2,2.881455421E-1
8.435697290E0,-6.951977015E-1,-1.299584359E-1,2.721670270E-1
8.455583123E0,-6.797518134E-1,-1.587197185E-1,2.438717782E-1
8.475484269E0,-6.333476305E-1,-1.880802065E-1,2.342846841E-1
8.495336873E0,-5.795533657E-1,-2.061891705E-1,2.209692746E-1
8.515243227E0,-5.187684894E-1,-2.131131887E-1,2.060560137E-1
8.535189998E0,-4.585828185E-1,-2.013956159E-1,1.970015317E-1
8.555042394E0,-4.105807543E-1,-1.422086060E-1,1.932732165E-1
8.574912446E0,-3.727649748E-1,-4.946675897E-2,1.970015317E-1
8.594824998E0,-3.332847953E-1,2.623136342E-2,2.044581622E-1
8.614690883E0,-2.816209793E-1,6.191666797E-2,1.916753650E-1
8.634586613E0,-2.133794874E-1,6.457975507E-2,1.452711523E-1
8.654474738E0,-1.446053833E-1,4.647079110E-2,1.031944528E-1
8.674406092E0,-9.134373069E-2,5.552527308E-2,6.690994650E-2
8.694278644E0,-4.760260135E-2,1.050586104E-1,1.311568171E-2
8.714202654E0,-4.993279930E-3,1.557237506E-1,-4.873441160E-2
8.734078279E0,4.886756465E-2,1.807567328E-1,-1.079214215E-1
8.753972446E0,1.005313694E-1,1.812893450E-1,-1.579873711E-1
8.773866613E0,1.522617489E-1,1.578542143E-1,-1.856834292E-1
8.793742863E0,2.055899799E-1,1.440061927E-1,-1.974675655E-1
8.813632446E0,2.684387267E-1,1.791588813E-1,-2.091851383E-1
8.833531665E0,3.276257217E-1,2.458025217E-1,-2.358159572E-1
8.853392238E0,3.633110523E-1,2.820204496E-1,-2.672403455E-1
8.873318019E0,3.958672285E-1,2.703028917E-1,-2.821536064E-1
8.893191769E0,4.214328229E-1,2.474003732E-1,-2.683055699E-1
8.913099581E0,4.145087898E-1,2.111824453E-1,-2.342181057E-1
8.932983644E0,3.792895377E-1,1.487997323E-1,-1.904769838E-1
8.952866456E0,3.627784252E-1,1.168427467E-1,-1.505307406E-1
8.972745571E0,3.585174978E-1,1.855502725E-1,-1.414762586E-1
8.992660206E0,3.191038668E-1,3.103156984E-1,-1.553242952E-1
9.012538383E0,2.402100414E-1,3.678382933E-1,-1.627809256E-1
9.032444165E0,1.661097705E-1,3.289572597E-1,-1.302913129E-1
9.052353540E0,1.256309152E-1,2.809551954E-1,-8.441971987E-2
9.072243175E0,5.951989442E-2,3.055221438E-1,-9.027849883E-2
9.092132186E0,-2.789578959E-2,3.646425903E-1,-1.462698132E-1
9.112009633E0,-1.041265279E-1,3.699687421E-1,-2.155765295E-1
9.131894790E0,-1.424749196E-1,2.921401560E-1,-2.704360485E-1
9.151796352E0,-1.360835135E-1,1.892785877E-1,-3.211011887E-1
9.171666144E0,-1.046591476E-1,1.306907833E-1,-3.637104928E-1
9.191554842E0,-7.583127916E-2,1.360169351E-1,-3.877448142E-1
9.211460779E0,-5.718969926E-2,1.823545843E-1,-3.866795897E-1
9.231344842E0,-3.748288751E-2,2.447372824E-1,-3.716997504E-1
9.251248956E0,-1.138467807E-2,3.129787743E-1,-3.450689316E-1
9.271157394E0,1.584534161E-2,3.619794846E-1,-3.008617461E-1
9.291023904E0,3.075860441E-2,3.502619267E-1,-2.640446424E-1
9.310902758E0,3.821523488E-2,2.511286736E-1,-2.406095117E-1
9.330818644E0,6.324820966E-2,1.050586104E-1,-2.198374718E-1
9.350708123E0,8.402025700E-2,-2.336854860E-2,-1.990654171E-1
9.370582446E0,7.869409025E-2,-7.935985923E-2,-1.675744653E-1
9.390486873E0,7.230269164E-2,-6.651048362E-2,-1.318891644E-1
9.410359373E0,5.046541616E-2,-1.910761744E-2,-1.105845049E-1
9.430257602E0,2.117150649E-2,1.391460653E-2,-8.548495173E-2
9.450147654E0,6.191667169E-3,-7.390053943E-3,-4.074516147E-2
9.470066040E0,-6.591129117E-3,-8.841434121E-2,-2.330197254E-3
9.489958644E0,-1.511299331E-2,-2.136458009E-1,3.814865649E-2
9.509843748E0,-1.671084389E-2,-3.698355854E-1,7.489919662E-2
9.529740936E0,3.328853054E-4,-5.211652517E-1,1.015966013E-1
9.549607446E0,3.715000302E-2,-6.075156927E-1,1.426080763E-1
9.569522081E0,6.111774594E-2,-5.814175010E-1,1.692388952E-1
9.589419998E0,7.496577501E-2,-5.105129480E-1,1.729672104E-1
9.609286717E0,9.413997084E-2,-4.913387299E-1,1.729672104E-1
9.629201144E0,1.047922969E-1,-5.062519908E-1,1.505973190E-1
9.649098331E0,1.149785891E-1,-5.131760240E-1,1.111836955E-1
9.668950154E0,1.522617489E-1,-5.360785127E-1,7.756228000E-2
9.688884165E0,1.916753650E-1,-5.611780882E-1,4.560529068E-2
9.708737654E0,2.119813710E-1,-5.670368671E-1,1.950708032E-2
9.728644113E0,2.236989290E-1,-5.441343188E-1,1.098521519E-2
9.748530675E0,2.221010923E-1,-5.232957006E-1,2.110492997E-2
9.768437811E0,2.023942769E-1,-5.473300219E-1,4.826837033E-2
9.788359790E0,1.677076221E-1,-5.894067287E-1,1.047922969E-1
9.808262811E0,1.320223212E-1,-5.718303919E-1,1.649779677E-1
9.828112081E0,9.467258304E-2,-5.094476938E-1,2.119147927E-1
9.848003436E0,6.005251035E-2,-5.025236607E-1,2.428065538E-1
9.867874998E0,4.513924941E-2,-5.718303919E-1,2.699699998E-1
9.887756821E0,6.644391268E-2,-6.197658777E-1,3.014609516E-1
9.907674894E0,8.828118443E-2,-5.728956461E-1,3.185046613E-1
9.927542654E0,7.709623873E-2,-4.854799509E-1,3.328853250E-1
9.947474946E0,5.206326395E-2,-3.964664042E-1,3.515268862E-1
9.967327342E0,6.191667169E-3,-3.207682967E-1,3.718329072E-1
9.987235311E0,-7.210296392E-2,-2.723001838E-1,3.883440197E-1
1.000714000E1,-1.302247345E-1,-2.402766198E-1,3.755612075E-1
1.002702448E1,-1.627143472E-1,-1.971346885E-1,3.254286945E-1
1.004693474E1,-1.963357627E-1,-1.533935517E-1,2.673069239E-1
1.006677463E1,-2.330863029E-1,-1.171756312E-1,2.135126442E-1
1.008668640E1,-2.591845095E-1,-7.722939551E-2,1.474016160E-1
1.010656036E1,-2.591845095E-1,-3.455349803E-2,6.904041767E-2
1.012644974E1,-2.320210636E-1,1.444722246E-2,-2.316881903E-2
1.014636323E1,-2.101837844E-1,3.954677656E-2,-9.666989744E-2
1.016625646E1,-2.288253754E-1,5.991935614E-4,-9.347419441E-2
1.018616338E1,-2.746969759E-1,-4.414059222E-2,-3.808208182E-2
1.020602984E1,-2.837514579E-1,-5.159722641E-2,1.311568171E-2
1.022591703E1,-2.352167666E-1,-3.029256500E-2,2.323539555E-2
1.024582708E1,-1.552577168E-1,-8.455286734E-3,1.631138101E-2
1.026570937E1,-7.210296392E-2,1.125152409E-2,5.659050308E-3
1.028559734E1,-1.797580742E-3,4.540555924E-2,6.191667169E-3
1.030548703E1,5.153064802E-2,1.066564545E-1,2.323539555E-2
1.032538906E1,7.869409025E-2,1.663760841E-1,4.880098626E-2
1.034530682E1,9.946613014E-2,2.095845938E-1,5.892070010E-2
1.036521932E1,1.288266182E-1,2.399437428E-1,5.146406963E-2
1.038505849E1,1.480008066E-1,2.452699095E-1,4.400743917E-2
1.040496979E1,1.671750098E-1,2.458025217E-1,3.868127242E-2
1.042488135E1,1.852839738E-1,2.633788586E-1,4.187697172E-2
1.044472693E1,1.938058287E-1,2.937380075E-1,4.081173986E-2
1.046464151E1,2.114487588E-1,3.300225139E-1,2.962679416E-2
1.048453146E1,2.300903350E-1,3.625121117E-1,3.069202602E-2
1.050446396E1,2.370143533E-1,3.736970723E-1,4.667052254E-2
1.052434916E1,2.290250957E-1,3.571859598E-1,6.904041767E-2
1.054426448E1,2.130466104E-1,3.390769958E-1,8.774857223E-2
1.056408146E1,1.884796619E-1,3.246963322E-1,9.520520270E-2
1.058401120E1,1.533269733E-1,2.820204496E-1,9.946613014E-2
1.060389328E1,1.325549334E-1,2.133129090E-1,1.005313694E-1
1.062376276E1,1.107176542E-1,1.370821744E-1,9.360735118E-2
1.064368104E1,8.721595258E-2,4.327509180E-2,9.627043456E-2
1.066356057E1,8.721595258E-2,-3.934704512E-2,1.058575287E-1
1.068344864E1,1.021292135E-1,-7.290188223E-2,1.021292135E-1
1.070332401E1,1.101850420E-1,-7.669677585E-2,1.058575287E-1
1.072323635E1,1.192395240E-1,-7.449973375E-2,1.015966013E-1
1.074319239E1,1.293592304E-1,-7.935985923E-2,6.744256616E-2
1.076301109E1,1.309570819E-1,-9.427312016E-2,2.483324520E-2
1.078291140E1,1.197721362E-1,-1.209039465E-1,-1.251648832E-2
1.080280823E1,9.147688746E-2,-1.443390697E-1,-5.672365800E-2
1.082267344E1,6.324820966E-2,-1.565892547E-1,-1.004647911E-1
1.084259687E1,5.312849581E-2,-1.597849578E-1,-1.207042187E-1
1.086248354E1,4.833494872E-2,-1.315562725E-1,-1.350848675E-1
1.088237698E1,3.715000302E-2,-9.853405505E-2,-1.361500919E-1
1.090227781E1,3.288906813E-2,-8.894696087E-2,-1.196389869E-1
1.092216885E1,3.342168778E-2,-1.054580659E-1,-1.041931063E-1
1.094203797E1,2.756290510E-2,-1.427412182E-1,-8.761541545E-2
1.096195021E1,2.649767138E-2,-1.742321700E-1,-6.577813625E-2
1.098182078E1,2.436720580E-2,-1.827540398E-1,-3.808208182E-2
1.100171047E1,1.691057347E-2,-1.667089611E-1,-8.255556226E-3
1.102160083E1,1.398118329E-3,-1.374150664E-1,1.950708032E-2
1.104149526E1,-2.683055587E-2,-1.235670298E-1,4.027912393E-2
1.106140146E1,-5.079830065E-2,-1.464695334E-1,5.625762045E-2
1.108126682E1,-6.943988055E-2,-2.077870220E-1,8.774857223E-2
1.110118052E1,-8.495233208E-2,-2.573203444E-1,1.292926520E-1
1.112106042E1,-9.826774895E-2,-2.621804774E-1,1.783599555E-1
1.114096875E1,-1.169093251E-1,-2.179067284E-1,1.804904193E-1
1.116085651E1,-1.259638071E-1,-1.822214276E-1,1.553908736E-1
1.118072114E1,-1.248985752E-1,-1.997977644E-1,1.394123733E-1
1.120063646E1,-1.264964193E-1,-2.274938226E-1,1.207707971E-1
1.122050448E1,-1.419423074E-1,-2.253633589E-1,9.520520270E-2
1.124042021E1,-1.611164957E-1,-1.955368370E-1,8.182321489E-2
1.126030094E1,-1.637795717E-1,-1.475347728E-1,6.477948278E-2
1.128022552E1,-1.685731262E-1,-9.853405505E-2,4.347482324E-2
1.130012281E1,-1.835529655E-1,-6.597787142E-2,3.388772532E-2
1.131996651E1,-1.894117445E-1,-4.786890745E-2,2.643109486E-2
1.133988984E1,-1.862160414E-1,-4.147751257E-2,2.856156044E-2
1.135975354E1,-1.926074475E-1,-3.135779873E-2,2.483324520E-2
1.137964401E1,-1.952705234E-1,-1.537930220E-2,8.322132751E-3
1.139956172E1,-1.840855777E-1,1.664426643E-3,-4.460663069E-3
1.141944073E1,-1.824877262E-1,2.356828004E-2,-1.624480449E-2
1.143931646E1,-1.936726719E-1,4.647079110E-2,-3.914731368E-2
1.145921265E1,-2.021945417E-1,4.220985994E-2,-5.406057462E-2
1.147912437E1,-2.069880962E-1,2.463351376E-2,-6.471290439E-2
1.149899208E1,-2.112490237E-1,2.836182900E-2,-8.228924870E-2
1.151892166E1,-1.968683749E-1,5.232957378E-2,-9.507204592E-2
1.153877140E1,-1.718354076E-1,8.375394344E-2,-1.025952548E-1
1.155868729E1,-1.541924775E-1,1.013302878E-1,-1.031278744E-1
1.157858510E1,-1.398118287E-1,1.168427467E-1,-9.880036116E-2
1.159845328E1,-1.179745570E-1,1.472018957E-1,-9.666989744E-2
1.161837953E1,-9.933298081E-2,1.764957905E-1,-9.933298081E-2
1.163824953E1,-8.015878499E-2,1.908764392E-1,-1.079214215E-1
1.165816984E1,-4.813521728E-2,1.956699938E-1,-1.228346825E-1
1.167804125E1,-1.085206121E-2,2.090519816E-1,-1.308239251E-1
1.169794114E1,1.637795754E-2,2.314218730E-1,-1.238999143E-1
1.171783104E1,2.703028731E-2,2.537917793E-1,-1.201715991E-1
1.173769239E1,3.235645220E-2,2.537917793E-1,-1.084540337E-1
1.175760885E1,4.034570232E-2,2.266283184E-1,-8.388710022E-2
1.177750198E1,4.087831825E-2,1.866155118E-1,-6.631075591E-2
1.179738390E1,4.460663348E-2,1.344190985E-1,-4.926702753E-2
1.181727823E1,7.177007198E-2,9.600412846E-2,-3.275591508E-2
1.183718870E1,9.786828607E-2,8.801487833E-2,-1.784265228E-2
1.185705401E1,1.021292135E-1,7.682993263E-2,5.126433913E-3
1.187693484E1,9.786828607E-2,3.209014609E-2,2.962679416E-2
1.189686208E1,1.053249165E-1,-2.123808302E-2,5.199668556E-2
1.191673192E1,1.096524224E-1,-4.520582780E-2,6.584471464E-2
1.193663135E1,1.005313694E-1,-5.745600536E-2,7.809489965E-2
1.195651755E1,9.999874979E-2,-8.681648970E-2,8.288844675E-2
1.197640693E1,1.117828935E-1,-1.342193633E-1,6.744256616E-2
1.199630583E1,1.101850420E-1,-1.629806459E-1,3.655080870E-2
1.201624640E1,9.999874979E-2,-1.790257245E-1,1.577876508E-2
1.203609359E1,1.091198102E-1,-1.822214276E-1,-7.323477184E-4
1.205598276E1,1.155112088E-1,-1.710364819E-1,-2.476666868E-2
1.207588385E1,1.037270650E-1,-1.613828093E-1,-4.607132822E-2
1.209574198E1,1.010639817E-1,-1.624480337E-1,-6.151720881E-2
1.211562682E1,1.080545783E-1,-1.475347728E-1,-7.483261824E-2
1.213553786E1,1.128481254E-1,-1.123820841E-1,-7.909355313E-2
1.215542239E1,1.181742921E-1,-7.935985923E-2,-6.950645149E-2
1.217531307E1,1.266961545E-1,-5.639077350E-2,-5.778888986E-2
1.219524349E1,1.261635423E-1,-4.680367559E-2,-4.127778113E-2
1.221509792E1,1.155112088E-1,-4.786890745E-2,-2.210358530E-2
1.223497911E1,9.413997084E-2,-6.011908874E-2,-4.460663069E-3
1.225490364E1,7.017222792E-2,-8.255556226E-2,2.110492997E-2
1.227478521E1,5.898727849E-2,-1.049254537E-1,3.495295718E-2
1.229467479E1,5.472634733E-2,-1.225017980E-1,4.454005510E-2
1.231454578E1,5.525896326E-2,-1.294258088E-1,4.720313847E-2
1.233448656E1,5.099803209E-2,-1.363498271E-1,4.187697172E-2
1.235438432E1,5.099803209E-2,-1.491326243E-1,4.134435579E-2
1.237427745E1,5.845466256E-2,-1.491326243E-1,4.240959138E-2
1.239414745E1,5.099803209E-2,-1.310236603E-1,4.294220731E-2
1.241401515E1,2.862813696E-2,-1.097190008E-1,4.773575440E-2
1.243394271E1,1.424749196E-2,-9.374050796E-2,4.613790661E-2
1.245381995E1,3.528584493E-3,-7.722939551E-2,3.974650800E-2
1.247371771E1,-1.671084389E-2,-6.171693653E-2,3.601819277E-2
1.249359521E1,-3.322195634E-2,-6.118432060E-2,4.826837033E-2
1.251347370E1,-3.748288751E-2,-5.426030606E-2,7.117088139E-2
1.253337672E1,-4.547213390E-2,-1.005313639E-2,8.235582709E-2
1.255325818E1,-5.825493112E-2,4.380770773E-2,7.916013151E-2
1.257316146E1,-6.784202904E-2,6.457975507E-2,7.436657697E-2
1.259306896E1,-7.962616533E-2,4.966649041E-2,7.543181628E-2
1.261292281E1,-9.933298081E-2,3.528584540E-2,7.543181628E-2
1.263282562E1,-1.222354919E-1,4.860125855E-2,7.330134511E-2
1.265271500E1,-1.451379955E-1,8.002562821E-2,6.744256616E-2
1.267262812E1,-1.648448110E-1,8.694964647E-2,6.264901906E-2
1.269248208E1,-1.713027805E-1,6.884068251E-2,4.720313847E-2
1.271242745E1,-1.691057384E-1,5.818835273E-2,1.790923066E-2
1.273232661E1,-1.648448110E-1,5.925358832E-2,-4.993279930E-3
1.275227312E1,-1.579207927E-1,7.310161740E-2,-2.796236612E-2
1.277206588E1,-1.504641622E-1,8.748225868E-2,-4.766917601E-2
1.279198271E1,-1.488663107E-1,8.908011019E-2,-5.512581021E-2
1.281187354E1,-1.435401440E-1,6.830807030E-2,-4.553871229E-2
1.283176989E1,-1.302247345E-1,5.552527308E-2,-3.115806542E-2
1.285164068E1,-1.158440933E-1,6.937330216E-2,-1.890788600E-2
1.287154411E1,-9.986559302E-2,8.694964647E-2,-7.190322969E-3
1.289141682E1,-7.742912322E-2,9.440627694E-2,6.724283565E-3
1.291129958E1,-6.091801450E-2,8.641702682E-2,1.950708032E-2
1.293122927E1,-5.292876437E-2,7.416684926E-2,3.228987753E-2
1.295111114E1,-4.334167019E-2,5.818835273E-2,4.240959138E-2
1.297100323E1,-1.990654133E-2,3.581846133E-2,4.667052254E-2
1.299089614E1,1.424749196E-2,1.125152409E-2,5.252930522E-2
1.301077984E1,5.206326395E-2,8.588441648E-3,4.933360592E-2
1.303066646E1,8.402025700E-2,1.391460653E-2,4.454005510E-2
1.305054042E1,1.139133573E-1,1.125152409E-2,5.146406963E-2
1.307044182E1,1.410768032E-1,-3.129122080E-3,5.412715301E-2
1.309036036E1,1.575879157E-1,-3.668396175E-2,5.838808417E-2
1.311022875E1,1.740990281E-1,-6.970618665E-2,7.117088139E-2
1.313011885E1,2.002638131E-1,-6.491263956E-2,7.756228000E-2
1.315002620E1,2.167749256E-1,-3.881442919E-2,7.436657697E-2
1.316991692E1,2.189053893E-1,-4.999937490E-2,7.383396477E-2
1.318980276E1,2.327534109E-1,-9.640359133E-2,6.904041767E-2
1.320970213E1,2.599168718E-1,-1.198387146E-1,6.051855162E-2
1.322958937E1,2.636451721E-1,-9.533835202E-2,5.679023638E-2
1.324947776E1,2.439383566E-1,-7.023879886E-2,5.838808417E-2
1.326936458E1,2.284924835E-1,-8.149032295E-2,6.105116755E-2
1.328926167E1,2.221010923E-1,-1.017297506E-1,5.998593569E-2
1.330918271E1,2.061225921E-1,-1.017297506E-1,5.093145370E-2
1.332903859E1,1.842187345E-1,-9.480573982E-2,4.027912393E-2
1.334894812E1,1.730337888E-1,-9.587097168E-2,3.335510939E-2
1.336882370E1,1.698380858E-1,-1.054580659E-1,3.388772532E-2
1.338869578E1,1.618488431E-1,-1.065233052E-1,3.868127242E-2
1.340862500E1,1.527943611E-1,-9.746882319E-2,3.761604056E-2
1.342849094E1,1.527943611E-1,-9.640359133E-2,3.814865649E-2
1.344841120E1,1.581205279E-1,-1.118494645E-1,4.400743917E-2
1.346829489E1,1.575879157E-1,-1.235670298E-1,4.560529068E-2
1.348821495E1,1.527943611E-1,-1.134473160E-1,4.560529068E-2
1.350805338E1,1.517291218E-1,-8.468602598E-2,4.720313847E-2
1.352796140E1,1.410768032E-1,-5.692338943E-2,3.868127242E-2
1.354786844E1,1.293592304E-1,-5.372769013E-2,2.430062927E-2
1.356772015E1,1.256309152E-1,-7.236927003E-2,1.524614729E-2
1.358762526E1,1.235004514E-1,-6.810833514E-2,2.323539555E-2
1.360754406E1,1.042596847E-1,5.991935614E-4,5.252930522E-2
1.362743489E1,6.750914454E-2,1.168427467E-1,5.892070010E-2
1.364729151E1,2.436720580E-2,1.690391600E-1,4.454005510E-2
1.366722958E1,-1.244991086E-2,1.242993772E-1,2.643109486E-2
1.368710854E1,-4.440690205E-2,5.499265343E-2,-2.862813650E-3
1.370700229E1,-7.316819578E-2,2.942706272E-2,-3.488638252E-2
1.372690448E1,-9.613727778E-2,7.682993263E-2,-6.684337556E-2
1.374675140E1,-1.083874628E-1,1.573216021E-1,-9.507204592E-2
1.376665594E1,-1.142462417E-1,2.085193694E-1,-1.132475883E-1
1.378654463E1,-1.099853069E-1,2.047910541E-1,-1.318891644E-1
1.380644005E1,-1.030612960E-1,1.637129933E-1,-1.462698132E-1
1.382636526E1,-9.826774895E-2,1.258972287E-1,-1.510633528E-1
1.384624526E1,-9.081111848E-2,1.136470512E-1,-1.553242952E-1
1.386615177E1,-8.069140464E-2,1.232341453E-1,-1.590526104E-1
1.388601781E1,-6.464632601E-2,1.408104897E-1,-1.484002769E-1
1.390590974E1,-5.239614844E-2,1.599846780E-1,-1.313565522E-1
1.392577526E1,-4.227643460E-2,1.674413085E-1,-1.191063672E-1
1.394566745E1,-3.375457227E-2,1.557237506E-1,-1.191063672E-1
1.396556552E1,-3.109148890E-2,1.237667650E-1,-1.185737476E-1
1.398548828E1,-3.428718820E-2,9.334104508E-2,-1.164432839E-1
1.400537969E1,-3.375457227E-2,9.014534205E-2,-1.238999143E-1
1.402524802E1,-3.109148890E-2,9.866721183E-2,-1.372153312E-1
1.404519151E1,-2.896102332E-2,8.961272985E-2,-1.414762586E-1
1.406501953E1,-3.055887297E-2,6.404713541E-2,-1.425414979E-1
1.408490943E1,-3.641765565E-2,3.741630912E-2,-1.468024254E-1
1.410482187E1,-3.695027158E-2,4.327509087E-3,-1.393457949E-1
1.412469823E1,-2.949363925E-2,-2.177070081E-2,-1.276282370E-1
1.414458807E1,-3.002625518E-2,-3.987966105E-2,-1.169759035E-1
1.416447088E1,-2.416747436E-2,-6.065170467E-2,-1.009974033E-1
1.418437338E1,-8.188978769E-3,-8.521863818E-2,-8.175663650E-2
1.420428823E1,4.593817517E-3,-1.043928340E-1,-6.151720881E-2
1.422418354E1,1.424749196E-2,-1.097190008E-1,-5.246272683E-2
1.424406906E1,1.904104091E-2,-1.171756312E-1,-5.299534276E-2
1.426394635E1,3.022598661E-2,-1.363498271E-1,-5.299534276E-2
1.428386651E1,4.141093418E-2,-1.517957002E-1,-5.619104207E-2
1.430374125E1,4.833494872E-2,-1.576544940E-1,-6.045197323E-2
1.432361328E1,5.366111174E-2,-1.592523307E-1,-5.406057462E-2
1.434353870E1,6.484606117E-2,-1.491326243E-1,-5.086487532E-2
1.436341005E1,7.017222792E-2,-1.310236603E-1,-4.447348043E-2
1.438329963E1,7.123745978E-2,-1.134473160E-1,-3.169068322E-2
1.440318021E1,6.857437640E-2,-9.746882319E-2,-1.411433797E-2
1.442307786E1,5.685681105E-2,-8.095771074E-2,-1.997311920E-4
1.444296292E1,4.620448127E-2,-6.065170467E-2,6.724283565E-3
1.446289344E1,3.715000302E-2,-4.786890745E-2,1.471353136E-2
1.448275354E1,2.383458801E-2,-3.828181326E-2,1.524614729E-2
1.450265229E1,1.584534161E-2,-4.041227698E-2,1.844184659E-2
1.452256114E1,1.744319126E-2,-3.934704512E-2,2.536586113E-2
1.454243917E1,1.258306485E-2,-3.508611396E-2,3.495295718E-2
1.456235687E1,-3.395430278E-3,-3.402087837E-2,5.625762045E-2
1.458226234E1,-1.617822610E-2,-3.828181326E-2,7.170350105E-2
1.460209984E1,-2.363485843E-2,-5.426030606E-2,8.615072072E-2
1.462199875E1,-2.416747436E-2,-7.449973375E-2,1.058575287E-1
1.464190375E1,-1.085206121E-2,-8.095771074E-2,1.175750941E-1
1.466178469E1,8.655018173E-4,-7.776200771E-2,1.234338731E-1
1.468168739E1,6.724283565E-3,-7.396712154E-2,1.314231306E-1
1.470158635E1,1.424749196E-2,-6.864095479E-2,1.303578913E-1
1.472145140E1,2.117150649E-2,-5.852124095E-2,1.303578913E-1
1.474136010E1,2.969337068E-2,-4.094489291E-2,1.362166703E-1
1.476124620E1,2.383458801E-2,-2.709686570E-2,1.356840581E-1
1.478114760E1,7.256899960E-3,-2.816209756E-2,1.335535944E-1
1.480103698E1,3.328853054E-4,-4.041227698E-2,1.426080763E-1
1.482092739E1,-2.862813650E-3,-3.721657768E-2,1.575213373E-1
1.484083745E1,-1.191729400E-2,-1.111837011E-2,1.777607650E-1
1.486068646E1,-1.617822610E-2,1.338198967E-2,1.954036802E-1
1.488062135E1,-1.085206121E-2,1.770949923E-2,2.012624592E-1
1.490047614E1,-1.085206121E-2,9.653674439E-3,2.007298470E-1
1.492039396E1,-1.031944528E-2,-3.661738476E-3,2.039255500E-1
1.494027901E1,-7.323477184E-4,-1.005313639E-2,2.087190896E-1
1.496017099E1,-1.797580742E-3,3.794892691E-3,2.065886259E-1
1.498007271E1,-1.564561017E-2,2.250304818E-2,2.055234015E-1
1.499996078E1,-3.322195634E-2,2.143781446E-2,1.980667710E-1
1.501984453E1,-5.026568472E-2,-1.165098604E-2,1.911427528E-1
1.503972578E1,-7.529865950E-2,-5.532554165E-2,1.906101406E-1
1.505962536E1,-9.400681406E-2,-7.236927003E-2,1.932732165E-1
1.507951833E1,-1.003982127E-1,-5.958647281E-2,1.943384558E-1
1.509941146E1,-1.073222235E-1,-3.987966105E-2,1.943384558E-1
1.511931453E1,-1.089200750E-1,-2.230331674E-2,1.932732165E-1
1.513921333E1,-1.110505462E-1,-1.910761744E-2,1.959362924E-1
1.515907854E1,-1.174419373E-1,-1.058575325E-2,1.943384558E-1
1.517895771E1,-1.233007237E-1,6.457975134E-3,1.895449013E-1
1.519888354E1,-1.435401440E-1,1.983996481E-2,1.842187345E-1
1.521875745E1,-1.750310957E-1,2.782921307E-2,1.660431921E-1
1.523864161E1,-1.899443567E-1,2.516612969E-2,1.447385401E-1
1.525853693E1,-1.974010020E-1,3.049229458E-2,1.244991124E-1
1.527842906E1,-2.069880962E-1,6.724283099E-2,8.774857223E-2
1.529833989E1,-2.085859478E-1,1.055912226E-1,4.720313847E-2
1.531823010E1,-2.080533206E-1,1.066564545E-1,1.844184659E-2
1.533810088E1,-2.112490237E-1,8.428656310E-2,-3.395430278E-3
1.535800156E1,-2.037923932E-1,5.552527308E-2,-1.624480449E-2
1.537789239E1,-1.867486686E-1,4.753602296E-2,-2.050573565E-2
1.539779302E1,-1.669752747E-1,6.777545065E-2,-2.849498391E-2
1.541767349E1,-1.509967744E-1,8.375394344E-2,-3.382114694E-2
1.543757458E1,-1.323551983E-1,8.375394344E-2,-4.127778113E-2
1.545747489E1,-1.137136221E-1,7.256899774E-2,-5.565842614E-2
1.547733818E1,-1.041265279E-1,5.286218971E-2,-6.258244067E-2
1.549723219E1,-1.025286764E-1,3.848154470E-2,-6.844121963E-2
1.551712427E1,-9.933298081E-2,3.422060981E-2,-7.483261824E-2
1.553701036E1,-8.548495173E-2,4.434032366E-2,-8.015878499E-2
1.555692687E1,-6.038539857E-2,5.925358832E-2,-8.601756394E-2
1.557681021E1,-3.961335123E-2,6.830807030E-2,-8.495233208E-2
1.559671406E1,-2.150439098E-2,7.949301600E-2,-9.400681406E-2
1.561657515E1,-1.797580742E-3,8.854749799E-2,-1.063235700E-1
1.563647021E1,1.151783206E-2,9.121058136E-2,-1.175085157E-1
1.565640088E1,2.383458801E-2,8.908011019E-2,-1.265629977E-1
1.567626166E1,3.981308267E-2,8.748225868E-2,-1.228346825E-1
1.569619437E1,4.993279651E-2,1.055912226E-1,-1.313565522E-1
1.571605547E1,5.525896326E-2,1.157775149E-1,-1.425414979E-1
1.573593974E1,6.591129303E-2,9.866721183E-2,-1.414762586E-1
1.575583505E1,7.603100687E-2,8.215609938E-2,-1.356174797E-1
1.577573411E1,7.496577501E-2,8.109086752E-2,-1.260303855E-1
1.579562010E1,6.591129303E-2,9.653674066E-2,-1.212368309E-1
1.581551068E1,6.111774594E-2,1.141796634E-1,-1.111171171E-1
1.583540906E1,6.271559745E-2,1.274950802E-1,-9.400681406E-2
1.585527515E1,5.898727849E-2,1.493323594E-1,-9.400681406E-2
1.587523734E1,5.472634733E-2,1.493323594E-1,-9.453943372E-2
1.589509479E1,5.312849581E-2,1.317560077E-1,-8.814803511E-2
1.591497495E1,5.259587988E-2,1.301581562E-1,-8.868064731E-2
1.593486359E1,5.472634733E-2,1.392126381E-1,-8.814803511E-2
1.595475453E1,5.792204663E-2,1.498649716E-1,-7.962616533E-2
1.597465260E1,6.324820966E-2,1.498649716E-1,-6.684337556E-2
1.599454844E1,6.378082931E-2,1.413431019E-1,-5.512581021E-2
1.601441318E1,6.058513001E-2,1.296255440E-1,-4.127778113E-2
1.603431000E1,6.697652489E-2,1.253646165E-1,-3.009283356E-2
1.605424797E1,7.922670245E-2,1.301581562E-1,-2.316881903E-2
1.607408568E1,9.360735118E-2,1.285603046E-1,-1.571218669E-2
1.609398942E1,1.015966013E-1,1.125818118E-1,-7.323477184E-4
1.611389375E1,1.096524224E-1,9.547150880E-2,8.854749613E-3
1.613378000E1,1.235004514E-1,8.481918275E-2,1.311568171E-2
1.615364292E1,1.330875456E-1,7.682993263E-2,1.524614729E-2
1.617354692E1,1.336201727E-1,7.576470077E-2,1.258306485E-2
1.619344161E1,1.293592304E-1,7.150376588E-2,5.659050308E-3
1.621333953E1,1.229678392E-1,5.339480564E-2,-1.264964230E-3
1.623321932E1,1.123155057E-1,2.090519853E-2,-8.788172156E-3
1.625313281E1,9.786828607E-2,-1.591191813E-2,-5.525896326E-3
1.627302271E1,9.094426781E-2,-3.934704512E-2,1.045259926E-2
1.629290182E1,8.242240548E-2,-4.786890745E-2,3.228987753E-2
1.631277192E1,7.336792350E-2,-5.212984234E-2,5.465976894E-2
1.633269781E1,8.508548886E-2,-6.810833514E-2,6.957302988E-2
1.635256401E1,1.187069044E-1,-9.320788831E-2,7.702966034E-2
1.637245682E1,1.490660459E-1,-1.075885370E-1,7.756228000E-2
1.639240286E1,1.740990281E-1,-1.171756312E-1,7.649704814E-2
1.641227745E1,2.045247406E-1,-1.326215118E-1,7.756228000E-2
1.643218911E1,2.290250957E-1,-1.480673850E-1,7.489919662E-2
1.645202739E1,2.450035959E-1,-1.736995578E-1,6.371425092E-2
1.647194911E1,2.577863932E-1,-2.189719677E-1,5.039883777E-2
1.649186073E1,2.732322812E-1,-2.669740319E-1,4.347482324E-2
1.651172771E1,2.785584331E-1,-3.010614812E-1,4.720313847E-2
1.653160401E1,2.892107666E-1,-3.122464418E-1,5.945331976E-2
1.655148578E1,3.036579788E-1,-3.069202602E-1,7.862751186E-2
1.657140312E1,3.137777150E-1,-2.914743721E-1,1.079879999E-1
1.659128265E1,3.100493848E-1,-2.610486746E-1,1.436733007E-1
1.661117463E1,2.854824364E-1,-2.242981344E-1,1.847513467E-1
1.663105099E1,2.551233172E-1,-1.902106702E-1,2.268280536E-1
1.665095755E1,2.205032408E-1,-1.571218669E-1,2.657090724E-1
1.667085406E1,1.751642525E-1,-1.086537689E-1,2.742975056E-1
1.669075416E1,1.171090528E-1,-5.426030606E-2,2.673069239E-1
1.671060958E1,5.685681105E-2,6.657706399E-5,2.534588873E-1
1.673051765E1,5.126433913E-3,3.901416063E-2,2.380129993E-1
1.675041792E1,-2.736317366E-2,5.765573680E-2,2.145778835E-1
1.677033583E1,-4.653736949E-2,5.605788901E-2,1.959362924E-1
1.679024844E1,-4.866783321E-2,5.126433820E-2,1.750976741E-1
1.681014896E1,-3.215672076E-2,5.179695413E-2,1.511299312E-1
1.682998916E1,-6.058512721E-3,4.061200842E-2,1.340862066E-1
1.684988625E1,3.182383627E-2,1.178414002E-2,1.197055578E-1
1.686975963E1,7.709623873E-2,-3.348826244E-2,1.101184636E-1
1.688966052E1,1.245656833E-1,-6.970618665E-2,1.218360290E-1
1.690955500E1,1.559900641E-1,-7.343450189E-2,1.500647068E-1
1.692945854E1,1.751642525E-1,-6.970618665E-2,1.799578071E-1
1.694931864E1,1.943384558E-1,-8.575125784E-2,1.996646076E-1
1.696924776E1,2.167749256E-1,-1.123820841E-1,2.215018868E-1
1.698911943E1,2.364817262E-1,-1.065233052E-1,2.273606807E-1
1.700902271E1,2.455362082E-1,-7.343450189E-2,2.225671262E-1
1.702891375E1,2.428731322E-1,-4.201012850E-2,2.204366624E-1
1.704881021E1,2.268946320E-1,-2.603163198E-2,2.129800320E-1
1.706866708E1,2.039921284E-1,-2.816209756E-2,2.060560137E-1
1.708858666E1,1.836861223E-1,-3.508611396E-2,1.890122890E-1
1.710846922E1,1.677076221E-1,-4.307536036E-2,1.559234858E-1
1.712836844E1,1.485334337E-1,-5.798862129E-2,1.346188188E-1
1.714827526E1,1.272287667E-1,-6.384740770E-2,1.234338731E-1
1.716817406E1,1.128481254E-1,-5.532554165E-2,1.122489274E-1
1.718803818E1,1.064567268E-1,-4.893414304E-2,1.143793985E-1
1.720794271E1,9.946613014E-2,-5.958647281E-2,1.234338731E-1
1.722784437E1,8.774857223E-2,-1.022623703E-1,1.330209672E-1
1.724769380E1,8.029194176E-2,-1.640458852E-1,1.516625583E-1
1.726761573E1,9.254211932E-2,-2.056565434E-1,1.761629134E-1
1.728749302E1,9.893351793E-2,-2.024608552E-1,1.975341439E-1
1.730740120E1,8.348763734E-2,-1.742321700E-1,2.135126442E-1
1.732727172E1,7.070484012E-2,-1.699712425E-1,2.129800320E-1
1.734719693E1,7.762885839E-2,-2.056565434E-1,2.081864774E-1
1.736707260E1,9.200949967E-2,-2.338852286E-1,2.087190896E-1
1.738695854E1,9.999874979E-2,-2.019282281E-1,2.092517167E-1
1.740687135E1,9.573781490E-2,-1.363498271E-1,2.065886259E-1
1.742672557E1,8.508548886E-2,-8.734910935E-2,1.948710680E-1
1.744660989E1,7.549838722E-2,-8.628387749E-2,1.906101406E-1
1.746650651E1,7.496577501E-2,-9.374050796E-2,1.799578071E-1
1.748640224E1,8.295502514E-2,-7.503235340E-2,1.505973190E-1
1.750632088E1,8.295502514E-2,-3.881442919E-2,1.324883550E-1
1.752623531E1,7.123745978E-2,-9.520520456E-3,1.367492825E-1
1.754608338E1,5.792204663E-2,6.657706399E-5,1.543256342E-1
1.756597901E1,5.259587988E-2,8.055824786E-3,1.607170254E-1
1.758585599E1,4.513924941E-2,1.444722246E-2,1.601844132E-1
1.760576489E1,3.448691964E-2,1.444722246E-2,1.687062830E-1
1.762563557E1,2.383458801E-2,8.588441648E-3,1.644453406E-1
1.764553963E1,2.596505545E-2,-4.194355104E-3,1.468690038E-1
1.766543864E1,4.247616604E-2,-1.964023337E-2,1.255643368E-1
1.768535307E1,5.845466256E-2,-3.295564651E-2,1.058575287E-1
1.770521401E1,5.792204663E-2,-4.094489291E-2,1.079879999E-1
1.772510390E1,5.153064802E-2,-3.242303059E-2,1.058575287E-1
1.774502396E1,5.685681105E-2,-2.283593267E-2,9.733566642E-2
1.776490245E1,7.816147059E-2,-2.336854860E-2,9.094426781E-2
1.778477505E1,9.520520270E-2,-1.857500151E-2,7.649704814E-2
1.780471146E1,9.680305421E-2,-5.259587895E-3,5.732285231E-2
1.782456745E1,1.021292135E-1,8.055824786E-3,4.454005510E-2
1.784447052E1,1.155112088E-1,3.368799388E-2,2.696371078E-2
1.786438495E1,1.128481254E-1,6.457975507E-2,2.463351469E-3
1.788431120E1,9.360735118E-2,8.268871158E-2,-2.263620123E-2
1.790421297E1,7.762885839E-2,8.535179496E-2,-5.246272683E-2
1.792404802E1,6.058513001E-2,8.854749799E-2,-8.335448056E-2
1.794390307E1,3.448691964E-2,8.854749799E-2,-1.084540337E-1
1.796381177E1,1.205044892E-2,7.896039635E-2,-1.265629977E-1
1.798368526E1,-9.786828421E-3,6.617759913E-2,-1.334870160E-1
1.800360614E1,-3.162410483E-2,6.404713541E-2,-1.308239251E-1
1.802350594E1,-4.653736949E-2,8.215609938E-2,-1.377479434E-1
1.804338146E1,-5.985277891E-2,9.973244369E-2,-1.436067224E-1
1.806326078E1,-7.689651102E-2,1.120491996E-1,-1.484002769E-1
1.808315948E1,-1.110505462E-1,1.317560077E-1,-1.505307406E-1
1.810303255E1,-1.467358470E-1,1.642456204E-1,-1.510633528E-1
1.812293411E1,-1.782267988E-1,1.983330697E-1,-1.595852226E-1
1.814282088E1,-2.139120996E-1,2.340849638E-1,-1.819551140E-1
1.816271401E1,-2.442712486E-1,2.745638192E-1,-2.006632686E-1
1.818260812E1,-2.656424940E-1,3.300225139E-1,-2.193048447E-1
1.820249932E1,-2.805557549E-1,3.902747631E-1,-2.432725877E-1
1.822239937E1,-3.018604219E-1,4.280905128E-1,-2.603163123E-1
1.824231312E1,-3.343500197E-1,4.509930313E-1,-2.661750913E-1
1.826219411E1,-3.679714203E-1,4.754934013E-1,-2.752295732E-1
1.828207203E1,-3.967327178E-1,5.005929470E-1,-2.875463367E-1
1.830196047E1,-4.334832728E-1,5.208323598E-1,-2.875463367E-1
1.832188328E1,-4.766917825E-1,5.117778778E-1,-2.619141638E-1
1.834176708E1,-5.283555984E-1,4.803535044E-1,-2.182396203E-1
1.836166573E1,-5.678358078E-1,4.552539587E-1,-1.883465201E-1
1.838155594E1,-5.720967054E-1,4.382102489E-1,-1.883465201E-1
1.840143068E1,-5.603791475E-1,4.158403277E-1,-1.739658713E-1
1.842130692E1,-5.651726723E-1,4.019923210E-1,-1.510633528E-1
1.844122552E1,-5.736945868E-1,3.940030634E-1,-1.372153312E-1
1.846109635E1,-5.603791475E-1,3.859472275E-1,-1.452045739E-1
1.848101234E1,-5.256925225E-1,3.865464330E-1,-1.760963351E-1
1.850091104E1,-5.054530501E-1,3.934704363E-1,-2.091851383E-1
1.852077557E1,-5.113118291E-1,3.897421360E-1,-2.235657871E-1
1.854068844E1,-5.310186744E-1,3.886769116E-1,-2.251636237E-1
1.856058396E1,-5.433354378E-1,4.105141759E-1,-2.395442724E-1
1.858047000E1,-5.363448262E-1,4.334166944E-1,-2.762948275E-1
1.860036354E1,-5.235620141E-1,4.201012850E-1,-3.200359344E-1
1.862025588E1,-5.107792616E-1,3.641099632E-1,-3.482646346E-1
1.864014849E1,-4.948007464E-1,2.873466015E-1,-3.461341560E-1
1.866001229E1,-4.729634523E-1,2.436720580E-1,-3.232316375E-1
1.867993234E1,-4.467986822E-1,2.580527067E-1,-3.120467067E-1
1.869981156E1,-4.100481272E-1,2.852161527E-1,-3.216337860E-1
1.871970896E1,-3.674388230E-1,2.585853040E-1,-3.312208951E-1
1.873961094E1,-3.343500197E-1,1.754305661E-1,-3.328187466E-1
1.875948875E1,-3.173062801E-1,9.334104508E-2,-3.189707100E-1
1.877937245E1,-2.928059399E-1,9.067796171E-2,-2.992638946E-1
1.879925349E1,-2.506626546E-1,1.690391600E-1,-2.981986701E-1
1.881914594E1,-2.053902447E-1,2.372806519E-1,-3.077857792E-1
1.883903411E1,-1.766289473E-1,2.260957062E-1,-2.837514579E-1
1.885894729E1,-1.664426625E-1,1.429409534E-1,-2.358159572E-1
1.887882651E1,-1.595186442E-1,6.244928762E-2,-1.888791323E-1
1.889870937E1,-1.435401440E-1,4.220985994E-2,-1.499981284E-1
1.891860192E1,-1.206376404E-1,8.109086752E-2,-1.223020703E-1
1.893852318E1,-9.933298081E-2,1.440061927E-1,-1.057909578E-1
1.895842687E1,-7.529865950E-2,1.871481240E-1,-9.560466558E-2
1.897833036E1,-5.346138403E-2,2.047910541E-1,-9.134373069E-2
1.899820271E1,-3.588503599E-2,2.170412242E-1,-9.134373069E-2
1.901805844E1,-2.150439098E-2,2.340849638E-1,-9.933298081E-2
1.903797708E1,-2.736317366E-2,2.484655976E-1,-1.079214215E-1
1.905786406E1,-5.505923182E-2,2.415415943E-1,-1.164432839E-1
1.907773823E1,-8.548495173E-2,2.026605755E-1,-1.191063672E-1
1.909765479E1,-1.009308323E-1,1.493323594E-1,-1.041931063E-1
1.911752172E1,-1.083874628E-1,1.200384498E-1,-8.655018359E-2
1.913743125E1,-1.115831584E-1,1.125818118E-1,-6.684337556E-2
1.915729922E1,-1.089200750E-1,9.227581322E-2,-3.754946589E-2
1.917720786E1,-1.014634445E-1,4.593817517E-2,-7.190322969E-3
1.919709453E1,-7.423342764E-2,-1.218360290E-2,2.589847706E-2
1.921698724E1,-3.908073530E-2,-4.414059222E-2,5.892070010E-2
1.923688614E1,-1.138467807E-2,-3.721657768E-2,8.721595258E-2
1.925677739E1,8.854749613E-3,-5.259587895E-3,1.010639817E-1
1.927668208E1,2.543243766E-2,2.303566411E-2,8.881380409E-2
1.929655692E1,3.182383627E-2,2.569874749E-2,7.063826174E-2
1.931645250E1,2.916075476E-2,1.284937374E-2,4.880098626E-2
1.933634276E1,3.555215150E-2,8.055824786E-3,1.897446252E-2
1.935624823E1,3.981308267E-2,2.729659714E-2,-5.525896326E-3
1.937613489E1,3.501953557E-2,5.286218971E-2,-1.677742042E-2
1.939603104E1,3.821523488E-2,6.191666797E-2,-2.423405088E-2
1.941592864E1,4.513924941E-2,4.806863889E-2,-2.529928461E-2
1.943581729E1,6.218297780E-2,9.653674439E-3,-1.517957076E-2
1.945569984E1,7.656362653E-2,-3.029256500E-2,-7.323477184E-4
1.947561036E1,8.242240548E-2,-6.278216839E-2,1.205044892E-2
1.949546849E1,9.573781490E-2,-9.161003679E-2,3.069202602E-2
1.951536213E1,1.219026074E-1,-1.145125479E-1,5.199668556E-2
1.953525172E1,1.373484880E-1,-1.352845877E-1,7.117088139E-2
1.955519114E1,1.405441761E-1,-1.672415882E-1,7.916013151E-2
1.957504385E1,1.543922126E-1,-2.237655073E-1,7.756228000E-2
1.959493458E1,1.820882708E-1,-2.786915898E-1,8.881380409E-2
1.961484031E1,2.002638131E-1,-2.845503688E-1,1.015966013E-1
1.963471911E1,2.125139832E-1,-2.551898956E-1,1.186403260E-1
1.965462667E1,2.210358530E-1,-2.392113954E-1,1.436733007E-1
1.967449078E1,2.279598713E-1,-2.573203444E-1,1.687062830E-1
1.969440792E1,2.386122048E-1,-3.010614812E-1,2.044581622E-1
1.971430854E1,2.615146935E-1,-3.271597028E-1,2.380129993E-1
1.973422370E1,2.892107666E-1,-3.138442934E-1,2.497305721E-1
1.975405521E1,3.047232330E-1,-2.872134447E-1,2.561219633E-1
1.977395172E1,3.164407909E-1,-2.818872929E-1,2.614481449E-1
1.979387292E1,3.361476064E-1,-2.930722237E-1,2.571871877E-1
1.981376156E1,3.675719798E-1,-2.898765504E-1,2.481327206E-1
1.983361802E1,4.118457139E-1,-2.578529716E-1,2.390782386E-1
1.985353521E1,4.379439354E-1,-2.317547649E-1,2.465348691E-1
1.987339666E1,4.480636418E-1,-2.237655073E-1,2.598502934E-1
1.989333078E1,4.635095298E-1,-2.386787683E-1,2.737648785E-1
1.991323036E1,4.848807454E-1,-2.648435533E-1,2.844172120E-1
1.993310286E1,4.939352274E-1,-3.053224087E-1,2.972000241E-1
1.995299323E1,4.816850722E-1,-3.804879189E-1,3.344831765E-1
1.997286880E1,4.854133725E-1,-4.225646257E-1,3.718329072E-1
1.999275901E1,5.035223365E-1,-3.996621072E-1,3.894092441E-1
2.001264672E1,5.013918877E-1,-3.335510790E-1,3.968658745E-1
2.003258630E1,4.822176695E-1,-2.786915898E-1,4.085834324E-1
2.005243792E1,4.661726058E-1,-2.760285139E-1,4.096486866E-1
2.007235521E1,4.790219665E-1,-3.133116663E-1,3.883440197E-1
2.009228776E1,5.141746402E-1,-3.436708152E-1,3.713002801E-1
2.011210094E1,5.519904494E-1,-3.250292242E-1,3.723655045E-1
2.013198807E1,5.701659918E-1,-2.482658774E-1,3.808873892E-1
2.015191958E1,5.562513471E-1,-1.544587910E-1,3.894092441E-1
2.017178469E1,5.322836041E-1,-8.308817446E-2,3.915397227E-1
2.019167125E1,5.237617493E-1,-6.704310328E-2,3.894092441E-1
2.021157448E1,5.195008516E-1,-1.075885370E-1,4.027246535E-1
2.023145531E1,4.827502966E-1,-1.411433816E-1,3.840830922E-1
2.025135573E1,4.182371199E-1,-1.555240154E-1,3.398093283E-1
2.027123406E1,3.681045771E-1,-1.523283273E-1,3.153089881E-1
2.029111703E1,3.452020884E-1,-1.134473160E-1,2.950695455E-1
2.031101385E1,3.191038668E-1,-5.585815758E-2,2.790910602E-1
2.033092177E1,2.737648785E-1,-7.922670804E-3,2.881455421E-1
2.035082427E1,2.146444470E-1,2.889444493E-2,2.934716940E-1
2.037071031E1,1.511965096E-1,4.487293959E-2,2.950695455E-1
2.039059844E1,8.934641629E-2,5.179695413E-2,2.977326214E-1
2.041048031E1,3.928046674E-2,6.671021879E-2,2.774932086E-1
2.043038875E1,1.151783206E-2,8.908011019E-2,2.422739416E-1
2.045029974E1,-3.928046674E-3,1.061238423E-1,2.071212530E-1
2.047021172E1,-2.523270808E-2,1.061238423E-1,1.644453406E-1
2.049011177E1,-4.227643460E-2,9.440627694E-2,1.010639817E-1
2.050997463E1,-4.547213390E-2,8.002562821E-2,3.601819277E-2
2.052984984E1,-4.706998542E-2,8.961272985E-2,-2.583190054E-2
2.054974562E1,-5.878754705E-2,1.296255440E-1,-8.761541545E-2
2.056961495E1,-8.228924870E-2,1.823545843E-1,-1.436067224E-1
2.058951047E1,-1.163767055E-1,2.202369273E-1,-2.075872868E-1
2.060941437E1,-1.595186442E-1,2.165086120E-1,-2.725664973E-1
2.062928609E1,-2.037923932E-1,1.919416785E-1,-3.509277105E-1
2.064921833E1,-2.437386364E-1,1.658434719E-1,-4.346150756E-1
2.066907224E1,-2.784252763E-1,1.253646165E-1,-4.858128428E-1
2.068898771E1,-3.098496497E-1,1.157775149E-1,-5.310852528E-1
2.070889338E1,-3.481980562E-1,1.258972287E-1,-5.806851387E-1
2.072877864E1,-3.834173083E-1,1.179079786E-1,-6.200987697E-1
2.074864708E1,-4.100481272E-1,9.440627694E-2,-6.515231729E-1
2.076853484E1,-4.404072762E-1,7.097115368E-2,-6.792857647E-1
2.078843245E1,-4.766917825E-1,5.392742157E-2,-6.835467219E-1
2.080834057E1,-5.049204826E-1,5.019910634E-2,-6.712965369E-1
2.082826547E1,-5.230293870E-1,5.499265343E-2,-6.686334610E-1
2.084811922E1,-5.352795720E-1,5.499265343E-2,-6.670355797E-1
2.086802120E1,-5.428028107E-1,7.043853402E-2,-6.569159031E-1
2.088790792E1,-5.384752750E-1,1.061238423E-1,-6.355446577E-1
2.090779057E1,-5.251598954E-1,1.242993772E-1,-5.950657725E-1
2.092766833E1,-5.161054134E-1,1.493323594E-1,-5.668371320E-1
2.094757068E1,-5.022573471E-1,1.599846780E-1,-5.412049294E-1
2.096746708E1,-4.809527099E-1,1.541258991E-1,-5.012587309E-1
2.098736979E1,-4.687025249E-1,1.578542143E-1,-4.628437459E-1
2.100726578E1,-4.569849670E-1,1.786262691E-1,-4.239627421E-1
2.102717271E1,-4.382767975E-1,2.170412242E-1,-3.834838867E-1
2.104703120E1,-4.143090546E-1,2.580527067E-1,-3.525255620E-1
2.106694094E1,-3.818194568E-1,2.836183012E-1,-3.253621161E-1
2.108679750E1,-3.396761715E-1,2.687050402E-1,-3.008617461E-1
2.110671333E1,-2.912080884E-1,2.159759998E-1,-2.730991244E-1
2.112661354E1,-2.298905998E-1,1.546585262E-1,-2.432725877E-1
2.114650260E1,-1.653774232E-1,1.050586104E-1,-2.123808414E-1
2.116638526E1,-1.083874628E-1,7.789516449E-2,-1.633135378E-1
2.118629760E1,-7.157034427E-2,8.588441461E-2,-1.180411354E-1
2.120620765E1,-4.440690205E-2,1.039933711E-1,-8.175663650E-2
2.122605109E1,-1.777607575E-2,1.141796634E-1,-6.098458916E-2
2.124594536E1,8.655018173E-4,1.179079786E-1,-5.033225939E-2
2.126582104E1,1.691057347E-2,1.029281393E-1,-4.074516147E-2
2.128572734E1,2.596505545E-2,7.416684926E-2,-3.382114694E-2
2.130562312E1,2.649767138E-2,3.741630912E-2,-2.476666868E-2
2.132553922E1,5.046541616E-2,-7.922670804E-3,-1.944050193E-2
2.134540156E1,1.075219586E-1,-5.426030606E-2,5.126433913E-3
2.136531635E1,1.639793068E-1,-8.202294260E-2,6.105116755E-2
2.138523755E1,1.997311860E-1,-8.149032295E-2,1.218360290E-1
2.140507078E1,2.412752807E-1,-7.776200771E-2,1.719019860E-1
2.142495125E1,2.865476906E-1,-9.320788831E-2,2.087190896E-1
2.144488052E1,3.238974214E-1,-1.304910481E-1,2.380129993E-1
2.146476844E1,3.478651643E-1,-1.705038548E-1,2.630459666E-1
2.148463640E1,3.643762767E-1,-2.003303915E-1,2.806889117E-1
2.150453140E1,3.771590590E-1,-2.061891705E-1,2.774932086E-1
2.152445213E1,3.942693770E-1,-2.013956159E-1,2.683721483E-1
2.154434901E1,4.097152650E-1,-1.891454458E-1,2.673069239E-1
2.156423031E1,4.171718955E-1,-1.640458852E-1,2.694373727E-1
2.158413239E1,4.166392684E-1,-1.422086060E-1,2.732322812E-1
2.160402417E1,4.033238590E-1,-1.230344176E-1,2.711018026E-1
2.162390760E1,3.755612075E-1,-1.198387146E-1,2.662416697E-1
2.164380583E1,3.452020884E-1,-1.368824393E-1,2.539914846E-1
2.166367672E1,3.201690912E-1,-1.645784974E-1,2.412087023E-1
2.168357265E1,2.908086181E-1,-1.870149672E-1,2.294911444E-1
2.170347510E1,2.545906901E-1,-1.907432824E-1,2.076538652E-1
2.172334213E1,2.226337045E-1,-1.950042248E-1,1.788925678E-1
2.174322630E1,1.922079772E-1,-2.040587068E-1,1.394123733E-1
2.176317390E1,1.602509916E-1,-2.056565434E-1,9.200949967E-2
2.178301838E1,1.346853971E-1,-1.987325400E-1,3.015941009E-2
2.180290984E1,1.085871905E-1,-1.742321700E-1,-4.234301299E-2
2.182280568E1,7.017222792E-2,-1.486000121E-1,-1.047257185E-1
2.184270812E1,3.288906813E-2,-1.219691783E-1,-1.654440016E-1
2.186260698E1,-1.458037738E-2,-1.033276021E-1,-2.203700840E-1
2.188250073E1,-6.091801450E-2,-1.187734827E-1,-2.517944574E-1
2.190238760E1,-8.814803511E-2,-1.539261788E-1,-2.805557549E-1
2.192227484E1,-1.019960642E-1,-1.870149672E-1,-3.115140796E-1
2.194220396E1,-1.131810099E-1,-2.115153372E-1,-3.418732285E-1
2.196204640E1,-1.185071766E-1,-2.392113954E-1,-3.716997504E-1
2.198192724E1,-1.153114736E-1,-2.653761804E-1,-3.936035931E-1
2.200182620E1,-1.030612960E-1,-2.749632597E-1,-4.074516296E-1
2.202173646E1,-8.974587917E-2,-2.627131045E-1,-4.143756330E-1
2.204162771E1,-7.636389136E-2,-2.349504530E-1,-4.122451842E-1
2.206148442E1,-6.730940938E-2,-2.067217827E-1,-4.154408872E-1
2.208140010E1,-6.624417752E-2,-1.981999129E-1,-4.218322635E-1
2.210127172E1,-7.476603985E-2,-2.104500979E-1,-4.074516296E-1
2.212121151E1,-8.175663650E-2,-2.077870220E-1,-3.850817382E-1
2.214108135E1,-8.282186836E-2,-1.742321700E-1,-3.647757471E-1
2.216096719E1,-8.601756394E-2,-1.161103994E-1,-3.498624861E-1
2.218087312E1,-9.081111848E-2,-5.532554165E-2,-3.408080041E-1
2.220072687E1,-1.030612960E-1,-2.656424791E-2,-3.338839710E-1
2.222062776E1,-1.286268830E-1,-2.603163198E-2,-3.253621161E-1
2.224052229E1,-1.446053833E-1,-1.271621883E-2,-3.131119311E-1
2.226040620E1,-1.536598653E-1,3.581846133E-2,-3.056553006E-1
2.228033396E1,-1.787594110E-1,7.629731297E-2,-3.051226735E-1
2.230021213E1,-2.149773389E-1,6.884068251E-2,-3.003291488E-1
2.232010505E1,-2.336189151E-1,3.049229458E-2,-3.013943732E-1
2.233998922E1,-2.234992087E-1,-2.596505452E-3,-3.088510036E-1
2.235990390E1,-1.910095960E-1,-1.644453406E-2,-3.104488552E-1
2.237978312E1,-1.664426625E-1,-1.378145255E-2,-2.955355942E-1
2.239968208E1,-1.621817350E-1,-6.324821152E-3,-2.720338702E-1
2.241956802E1,-1.643121988E-1,-2.283593267E-2,-2.358159572E-1
2.243945604E1,-1.515294015E-1,-5.106460676E-2,-2.011958808E-1
2.245936208E1,-1.350182891E-1,-7.989247888E-2,-1.617156863E-1
2.247925219E1,-1.291595101E-1,-9.693620354E-2,-1.095192730E-1
2.249911213E1,-1.217028722E-1,-9.320788831E-2,-6.151720881E-2
2.251901640E1,-1.030612960E-1,-8.202294260E-2,-2.902759984E-2
2.253890385E1,-8.761541545E-2,-6.224955618E-2,-2.330197254E-3
2.255881750E1,-7.476603985E-2,-4.307536036E-2,1.364829857E-2
2.257873297E1,-6.198324636E-2,-3.082518093E-2,2.003969625E-2
2.259859719E1,-5.079830065E-2,-1.165098604E-2,1.098521519E-2
2.261847635E1,-3.055887297E-2,4.327509087E-3,-1.997311920E-4
2.263840713E1,6.724283565E-3,-1.531272428E-3,8.655018173E-4
2.265827687E1,3.448691964E-2,-2.230331674E-2,1.737661287E-2
2.267818969E1,6.537867337E-2,-4.733629152E-2,4.613790661E-2
2.269803682E1,1.042596847E-1,-8.734910935E-2,8.235582709E-2
2.271793776E1,1.341527849E-1,-1.454043090E-1,1.351514459E-1
2.273784562E1,1.538596004E-1,-2.083196342E-1,1.964689195E-1
2.275772807E1,1.735664010E-1,-2.562551200E-1,2.460022569E-1
2.277762375E1,1.938058287E-1,-2.765611112E-1,2.796236575E-1
2.279749109E1,2.215684652E-1,-2.760285139E-1,2.886781394E-1
2.281739765E1,2.359491140E-1,-2.637783289E-1,2.828193605E-1
2.283728463E1,2.210358530E-1,-2.434723228E-1,2.641112208E-1
2.285720156E1,1.991985738E-1,-2.179067284E-1,2.433391660E-1
2.287705828E1,1.831535101E-1,-1.918085217E-1,2.225671262E-1
2.289696213E1,1.559900641E-1,-1.613828093E-1,2.076538652E-1
2.291687354E1,1.309570819E-1,-1.358172148E-1,1.959362924E-1
2.293673682E1,1.208373681E-1,-1.171756312E-1,1.799578071E-1
2.295664771E1,1.165764406E-1,-1.038602218E-1,1.783599555E-1
2.297652661E1,1.047922969E-1,-8.521863818E-2,1.842187345E-1
2.299643031E1,9.733566642E-2,-6.864095479E-2,1.916753650E-1
2.301632625E1,9.360735118E-2,-7.556496561E-2,2.071212530E-1
2.303624974E1,9.840089828E-2,-8.947957307E-2,2.161757201E-1
2.305609640E1,1.101850420E-1,-9.427312016E-2,2.156431079E-1
2.307599239E1,1.181742921E-1,-9.161003679E-2,2.209692746E-1
2.309588489E1,1.075219586E-1,-7.236927003E-2,2.444044054E-1
2.311578458E1,9.254211932E-2,-1.804238372E-2,2.513284087E-1
2.313568406E1,7.017222792E-2,7.363422960E-2,2.406760901E-1
2.315555161E1,3.928046674E-2,1.839524209E-1,2.167083472E-1
2.317545620E1,2.543243766E-2,2.697702646E-1,1.612496525E-1
2.319532578E1,2.117150649E-2,2.719007432E-1,1.090532318E-1
2.321524250E1,2.463351469E-3,2.154433727E-1,7.596442848E-2
2.323517937E1,-2.470009029E-2,1.743653268E-1,5.572500080E-2
2.325500995E1,-4.334167019E-2,1.983330697E-1,2.163754590E-2
2.327491625E1,-4.387428612E-2,2.516613007E-1,-4.607132822E-2
2.329482187E1,-3.215672076E-2,2.623136342E-1,-1.388131827E-1
2.331470698E1,-2.736317366E-2,1.898112148E-1,-2.315550297E-1
2.333459140E1,-5.079830065E-2,4.966649041E-2,-2.859484851E-1
2.335449000E1,-9.027849883E-2,-9.161003679E-2,-2.768274248E-1
2.337438042E1,-9.826774895E-2,-1.683068126E-1,-2.427399755E-1
2.339428656E1,-4.973306507E-2,-1.859497428E-1,-2.075872868E-1
2.341420286E1,5.126433913E-3,-2.003303915E-1,-1.452045739E-1
2.343403713E1,2.223674022E-2,-2.503963411E-1,-5.193011090E-2
2.345395281E1,1.691057347E-2,-3.218335211E-1,4.027912393E-2
2.347383526E1,2.489982173E-2,-3.629115820E-1,9.840089828E-2
2.349370047E1,3.715000302E-2,-3.543896973E-1,1.388797611E-1
2.351361666E1,2.170412242E-2,-2.691044807E-1,1.970015317E-1
2.353350896E1,-3.481980413E-2,-1.230344176E-1,2.161757201E-1
2.355338989E1,-9.240896255E-2,-2.762948163E-2,2.316216081E-1
2.357331271E1,-1.131810099E-1,-8.455286734E-3,2.380129993E-1
2.359318307E1,-1.158440933E-1,-3.029256500E-2,2.161757201E-1
2.361308521E1,-1.179745570E-1,-7.449973375E-2,2.039255500E-1
2.363296146E1,-1.259638071E-1,-1.070559174E-1,2.167083472E-1
2.365288073E1,-1.408770680E-1,-9.001219273E-2,2.348173112E-1
2.367275083E1,-1.483336985E-1,-5.852124095E-2,2.561219633E-1
2.369265114E1,-1.568555683E-1,-4.094489291E-2,2.646438181E-1
2.371250380E1,-1.541924775E-1,-5.426030606E-2,2.593176663E-1
2.373243656E1,-1.467358470E-1,-7.989247888E-2,2.444044054E-1
2.375233042E1,-1.467358470E-1,-1.017297506E-1,2.278932929E-1
2.377224057E1,-1.440727711E-1,-1.134473160E-1,2.252302021E-1
2.379209505E1,-1.302247345E-1,-9.959928691E-2,2.177735716E-1
2.381197224E1,-1.121157780E-1,-7.183665037E-2,2.039255500E-1
2.383189604E1,-8.921326697E-2,-4.946675897E-2,1.970015317E-1
2.385175604E1,-6.730940938E-2,-4.307536036E-2,1.927406043E-1
2.387166531E1,-4.653736949E-2,-4.414059222E-2,1.836861223E-1
2.389153682E1,-1.937392540E-2,-4.041227698E-2,1.761629134E-1
2.391146385E1,9.387366474E-3,-2.603163198E-2,1.676410437E-1
2.393134469E1,3.448691964E-2,-5.792204756E-3,1.537930220E-1
2.395125156E1,5.845466256E-2,1.071890723E-2,1.362166703E-1
2.397111656E1,8.348763734E-2,2.463351376E-2,1.138467789E-1
2.399100276E1,9.840089828E-2,3.315537795E-2,8.501891047E-2
2.401089427E1,8.029194176E-2,2.836182900E-2,6.904041767E-2
2.403080885E1,4.833494872E-2,1.178414002E-2,7.223611325E-2
2.405068885E1,2.703028731E-2,-1.857500151E-2,6.051855162E-2
2.407057875E1,2.703028731E-2,-6.491263956E-2,4.933360592E-2
2.409045276E1,4.300878197E-2,-1.134473160E-1,3.974650800E-2
2.411037396E1,5.206326395E-2,-1.533935517E-1,4.027912393E-2
2.413026797E1,5.259587988E-2,-1.736995578E-1,5.306192115E-2
2.415016224E1,5.792204663E-2,-1.918085217E-1,7.809489965E-2
2.417002292E1,5.046541616E-2,-2.184393406E-1,1.170424819E-1
2.418993396E1,1.637795754E-2,-2.349504530E-1,1.527277827E-1
2.420981750E1,-3.002625518E-2,-2.216350436E-1,1.729672104E-1
2.422970088E1,-6.677679718E-2,-1.752974093E-1,1.655105799E-1
2.424958021E1,-1.089200750E-1,-1.363498271E-1,1.399449855E-1
2.426947370E1,-1.637795717E-1,-1.448716968E-1,1.133141592E-1
2.428938510E1,-2.139120996E-1,-1.848845035E-1,8.395367861E-2
2.430927161E1,-2.421407849E-1,-2.093848735E-1,5.998593569E-2
2.432918255E1,-2.656424940E-1,-2.003303915E-1,6.477948278E-2
2.434904870E1,-2.917406857E-1,-1.571218669E-1,8.774857223E-2
2.436894885E1,-3.220998347E-1,-1.187734827E-1,1.079879999E-1
2.438887765E1,-3.487306535E-1,-1.304910481E-1,1.362166703E-1
2.440874104E1,-3.573191166E-1,-1.838192791E-1,1.681736708E-1
2.442861463E1,-3.578517139E-1,-2.232328951E-1,1.948710680E-1
2.444851661E1,-3.561872840E-1,-1.992651522E-1,2.028603107E-1
2.446844354E1,-3.503285050E-1,-1.597849578E-1,2.230997384E-1
2.448834797E1,-3.476654291E-1,-1.390129030E-1,2.481327206E-1
2.450823943E1,-3.434045017E-1,-1.432738453E-1,2.603828907E-1
2.452808120E1,-3.338173926E-1,-1.555240154E-1,2.603828907E-1
2.454796328E1,-3.263607621E-1,-1.533935517E-1,2.412087023E-1
2.456789198E1,-3.162410557E-1,-1.587197185E-1,2.241649777E-1
2.458774442E1,-2.981320918E-1,-1.565892547E-1,2.060560137E-1
2.460767604E1,-2.720338702E-1,-1.294258088E-1,1.788925678E-1
2.462755026E1,-2.437386364E-1,-7.776200771E-2,1.505973190E-1
2.464744828E1,-2.165751904E-1,-2.709686570E-2,1.181077138E-1
2.466734062E1,-1.926074475E-1,-4.660394625E-4,9.307473898E-2
2.468724568E1,-1.621817350E-1,1.877473295E-2,6.797518581E-2
2.470712489E1,-1.275616586E-1,4.913387448E-2,3.282249346E-2
2.472703911E1,-9.294158220E-2,8.268871158E-2,-1.264964230E-3
2.474689864E1,-6.091801450E-2,1.071890742E-1,-3.115806542E-2
2.476678411E1,-4.227643460E-2,1.131144315E-1,-5.299534276E-2
2.478668854E1,-3.695027158E-2,9.919982404E-2,-5.778888986E-2
2.480657073E1,-3.695027158E-2,8.961272985E-2,-5.459319428E-2
2.482646578E1,-2.842840552E-2,9.334104508E-2,-5.778888986E-2
2.484637125E1,-5.525896326E-3,1.071890742E-1,-5.885412544E-2
2.486626354E1,1.364829857E-2,1.163101271E-1,-5.778888986E-2
2.488618963E1,3.342168778E-2,1.163101271E-1,-5.832150951E-2
2.490605208E1,6.910699606E-2,1.168427467E-1,-6.577813625E-2
2.492593609E1,9.733566642E-2,1.344190985E-1,-8.282186836E-2
2.494580234E1,1.213699877E-1,1.589194536E-1,-1.041931063E-1
2.496568911E1,1.453377306E-1,1.754305661E-1,-1.196389869E-1
2.498560906E1,1.607836038E-1,1.871481240E-1,-1.292260885E-1
2.500548224E1,1.597183794E-1,1.988656968E-1,-1.377479434E-1
2.502540422E1,1.661097705E-1,2.138455361E-1,-1.531938314E-1
2.504528729E1,1.858165860E-1,2.404763550E-1,-1.766289473E-1
2.506522724E1,2.103835195E-1,2.569874525E-1,-1.948044896E-1
2.508506297E1,2.316881865E-1,2.532591522E-1,-2.043915838E-1
2.510494984E1,2.599168718E-1,2.495308369E-1,-2.097177505E-1
2.512484974E1,2.930056453E-1,2.564548552E-1,-2.118482143E-1
2.514473406E1,3.185712397E-1,2.766942680E-1,-2.129134536E-1
2.516462859E1,3.281583488E-1,2.905423045E-1,-2.187722325E-1
2.518451692E1,3.276257217E-1,2.766942680E-1,-2.230331600E-1
2.520442875E1,3.228321970E-1,2.489982247E-1,-2.240983993E-1
2.522434401E1,3.228321970E-1,2.383458912E-1,-2.304897904E-1
2.524422302E1,3.254952729E-1,2.362154275E-1,-2.326202542E-1
2.526409963E1,3.281583488E-1,2.330197245E-1,-2.320876420E-1
2.528398364E1,3.334845006E-1,2.276935577E-1,-2.400768995E-1
2.530385630E1,3.462673128E-1,2.223673910E-1,-2.448704392E-1
2.532377729E1,3.563870192E-1,2.255630940E-1,-2.528596818E-1
2.534365474E1,3.553217947E-1,2.330197245E-1,-2.656424940E-1
2.536356312E1,3.547891676E-1,2.335523367E-1,-2.725664973E-1
2.538342568E1,3.563870192E-1,2.308892608E-1,-2.821536064E-1
2.540331474E1,3.553217947E-1,2.308892608E-1,-2.934051156E-1
2.542321338E1,3.505282402E-1,2.271609455E-1,-2.896768153E-1
2.544311427E1,3.499956131E-1,2.319544852E-1,-2.794905007E-1
2.546299166E1,3.398759067E-1,2.431394309E-1,-2.725664973E-1
2.548289250E1,3.350823522E-1,2.335523367E-1,-2.645772398E-1
2.550277693E1,3.457346857E-1,2.026605755E-1,-2.507292330E-1
2.552269177E1,3.537239432E-1,1.775610298E-1,-2.411421239E-1
2.554257114E1,3.558544219E-1,1.690391600E-1,-2.283593267E-1
2.556245984E1,3.675719798E-1,1.759631783E-1,-2.171743810E-1
2.558238276E1,3.750286102E-1,1.844850481E-1,-2.182396203E-1
2.560227765E1,3.697024286E-1,1.701043993E-1,-2.145113051E-1
2.562215479E1,3.760938346E-1,1.487997323E-1,-2.272941023E-1
2.564203062E1,3.937367499E-1,1.472018957E-1,-2.528596818E-1
2.566192969E1,4.166392684E-1,1.722348630E-1,-2.875463367E-1
2.568183354E1,4.491288662E-1,1.978004575E-1,-3.296230435E-1
2.570171172E1,4.918047786E-1,2.031932026E-1,-3.701018989E-1
2.572159203E1,5.274900794E-1,1.956699938E-1,-3.999949992E-1
2.574149635E1,5.477294922E-1,1.919416785E-1,-4.170387387E-1
2.576136531E1,5.541208982E-1,1.946047544E-1,-4.138430357E-1
2.578125943E1,5.658384562E-1,2.213021666E-1,-4.133104086E-1
2.580119411E1,5.808182955E-1,2.484655976E-1,-3.936035931E-1
2.582103963E1,5.728290677E-1,2.761616707E-1,-3.578517139E-1
2.584093823E1,5.498600006E-1,3.225658834E-1,-3.621126413E-1
2.586084479E1,5.290879011E-1,3.326855898E-1,-3.786903322E-1
2.588074781E1,5.131094456E-1,2.975328863E-1,-3.973319232E-1
2.590062120E1,4.934026301E-1,2.308892608E-1,-4.090494812E-1
2.592053745E1,4.779567420E-1,1.589194536E-1,-4.037233293E-1
2.594040359E1,4.629769027E-1,1.237667650E-1,-3.834838867E-1
2.596031177E1,4.528571963E-1,1.370821744E-1,-3.530581594E-1
2.598021823E1,4.310199022E-1,1.663760841E-1,-3.115140796E-1
2.600011427E1,3.948020041E-1,1.754305661E-1,-2.800231278E-1
2.601998385E1,3.606479466E-1,1.360169351E-1,-2.571206093E-1
2.603984198E1,3.281583488E-1,6.457975507E-2,-2.139786780E-1
2.605974995E1,2.742975056E-1,8.588441648E-3,-1.521285921E-1
2.607962896E1,2.050573528E-1,2.729659667E-3,-8.814803511E-2
2.609952568E1,1.490660459E-1,3.848154470E-2,-4.394086078E-2
2.611941474E1,1.117828935E-1,7.629731297E-2,-9.320789017E-3
2.613932870E1,5.792204663E-2,8.162347972E-2,2.536586113E-2
2.615919984E1,-1.511299331E-2,4.061200842E-2,6.850779802E-2
2.617911114E1,-7.742912322E-2,-3.082518093E-2,1.186403260E-1
2.619900542E1,-1.387466043E-1,-8.788172156E-2,1.729672104E-1
2.621888562E1,-2.080533206E-1,-1.097190008E-1,2.364151478E-1
2.623875292E1,-2.725664973E-1,-1.161103994E-1,2.945369184E-1
2.625868219E1,-3.370130956E-1,-1.395455301E-1,3.499290347E-1
2.627854479E1,-3.972653449E-1,-1.939389855E-1,3.995289505E-1
2.629844489E1,-4.495283365E-1,-2.765611112E-1,4.357468784E-1
2.631838031E1,-4.953333437E-1,-3.623789549E-1,4.778901637E-1
2.633823526E1,-5.422701836E-1,-4.087165892E-1,5.295539498E-1
2.635814922E1,-5.891404152E-1,-4.076513648E-1,5.706320405E-1
2.637800859E1,-6.264235973E-1,-3.991295099E-1,5.988606811E-1
2.639793823E1,-6.541862488E-1,-4.135101438E-1,6.201653481E-1
2.641781958E1,-6.802844405E-1,-4.454671443E-1,6.270893812E-1
2.643770885E1,-7.069152594E-1,-4.689688385E-1,6.175022721E-1
2.645760146E1,-7.223611474E-1,-4.742949903E-1,5.977954865E-1
2.647747656E1,-7.250242233E-1,-4.497946501E-1,5.621101260E-1
2.649736463E1,-7.239589691E-1,-4.151079953E-1,5.252930522E-1
2.651726620E1,-7.288191319E-1,-3.911402524E-1,5.066514611E-1
2.653716208E1,-7.394714355E-1,-3.863466978E-1,5.002600551E-1
2.655706625E1,-7.405366898E-1,-3.842162490E-1,4.954665005E-1
2.657693687E1,-7.207632661E-1,-3.874119222E-1,4.933360517E-1
2.659686094E1,-6.861432195E-1,-3.746291399E-1,4.912055731E-1
2.661672568E1,-6.382077336E-1,-3.367467821E-1,4.848141670E-1
2.663659953E1,-5.912709236E-1,-3.047898114E-1,4.864120185E-1
2.665650198E1,-5.571834445E-1,-2.856155932E-1,4.853467941E-1
2.667641125E1,-5.256925225E-1,-2.680392563E-1,4.762923121E-1
2.669629917E1,-5.070509315E-1,-2.487984896E-1,4.816184938E-1
2.671623969E1,-5.304860473E-1,-2.280264497E-1,4.997274280E-1
2.673607349E1,-5.875425935E-1,-2.280264497E-1,5.220973492E-1
2.675598323E1,-6.504579186E-1,-2.541246414E-1,5.487947464E-1
2.677587042E1,-6.983934045E-1,-2.792242169E-1,5.439345837E-1
2.679574786E1,-7.212958932E-1,-2.973331809E-1,5.061188340E-1
2.681564062E1,-7.244915962E-1,-3.149095178E-1,4.517253935E-1
2.683555312E1,-7.138392925E-1,-3.175725937E-1,3.814199865E-1
2.685543229E1,-6.882736683E-1,-3.335510790E-1,3.105154335E-1
2.687531568E1,-6.573819518E-1,-3.826183975E-1,2.726996541E-1
2.689519942E1,-6.216300726E-1,-4.284234047E-1,2.486653328E-1
2.691511104E1,-5.641074777E-1,-4.471315742E-1,2.332194597E-1
2.693500771E1,-4.798874855E-1,-4.342821836E-1,2.305563688E-1
2.695490469E1,-3.930044174E-1,-3.911402524E-1,2.236323506E-1
2.697478911E1,-3.162410557E-1,-3.346163332E-1,2.215018868E-1
2.699468396E1,-2.421407849E-1,-2.914743721E-1,2.262954414E-1
2.701456771E1,-1.664426625E-1,-2.653761804E-1,2.268280536E-1
2.703446302E1,-1.019960642E-1,-2.136458009E-1,2.167083472E-1
2.705438411E1,-5.079830065E-2,-1.272953451E-1,1.948710680E-1
2.707425802E1,-1.997311920E-4,-6.278216839E-2,1.596518010E-1
2.709415942E1,5.259587988E-2,-2.443378232E-2,9.893351793E-2
2.711403062E1,9.946613014E-2,-1.324883569E-2,3.335510939E-2
2.713392167E1,1.288266182E-1,-1.218360290E-2,-2.849498391E-2
2.715381182E1,1.469355822E-1,1.664426643E-3,-9.081111848E-2
2.717368104E1,1.698380858E-1,4.593817517E-2,-1.452045739E-1
2.719359453E1,2.013290375E-1,1.184405982E-1,-2.006632686E-1
2.721345719E1,2.354165018E-1,1.844850481E-1,-2.459356785E-1
2.723335693E1,2.790910602E-1,2.197043151E-1,-2.794905007E-1
2.725327719E1,3.222995698E-1,2.442046702E-1,-3.077857792E-1
2.727318849E1,3.606479466E-1,2.756290436E-1,-3.280251920E-1
2.729306052E1,3.969324529E-1,3.103156984E-1,-3.434710801E-1
2.731295406E1,4.155740440E-1,3.470662236E-1,-3.530581594E-1
2.733284052E1,4.193023443E-1,3.838167787E-1,-3.610474169E-1
2.735272062E1,4.043890834E-1,4.062532485E-1,-3.562538624E-1
2.737261724E1,3.760938346E-1,3.993292153E-1,-3.290904164E-1
2.739249286E1,3.515934646E-1,3.822189271E-1,-3.013943732E-1
2.741242401E1,3.350823522E-1,3.673056662E-1,-2.907420397E-1
2.743230521E1,3.452020884E-1,3.582511842E-1,-2.848832607E-1
2.745220713E1,3.830178380E-1,3.689035177E-1,-2.789579034E-1
2.747208896E1,4.315525293E-1,4.041227698E-1,-2.736317217E-1
2.749198239E1,4.752270877E-1,4.536561072E-1,-2.773600519E-1
2.751187364E1,5.045875907E-1,4.765586257E-1,-2.757622004E-1
2.753172802E1,5.322836041E-1,4.653736651E-1,-2.752295732E-1
2.755164338E1,5.647732615E-1,4.302209914E-1,-2.837514579E-1
2.757151661E1,5.861444473E-1,3.800884485E-1,-2.987312973E-1
2.759142469E1,5.893401504E-1,3.284246624E-1,-3.152424097E-1
2.761130948E1,5.999925137E-1,2.814878225E-1,-3.205685616E-1
2.763121094E1,6.063839197E-1,2.500634491E-1,-2.955355942E-1
2.765111271E1,5.888075829E-1,2.250304818E-1,-2.635120153E-1
2.767100406E1,5.493273735E-1,1.764957905E-1,-2.203700840E-1
2.769090344E1,5.045875907E-1,1.039933711E-1,-1.643787771E-1
2.771075693E1,4.576507509E-1,3.741630912E-2,-1.254977584E-1
2.773066568E1,4.027912319E-1,-8.987903595E-3,-1.009974033E-1
2.775055640E1,3.515934646E-1,-3.934704512E-2,-8.441971987E-2
2.777043302E1,3.164407909E-1,-5.372769013E-2,-6.684337556E-2
2.779034625E1,2.764279842E-1,-3.561872989E-2,-5.406057462E-2
2.781024750E1,2.135792226E-1,3.262276063E-3,-5.619104207E-2
2.783014213E1,1.448051184E-1,3.262276202E-2,-7.802832127E-2
2.785002479E1,9.094426781E-2,3.049229458E-2,-1.025952548E-1
2.786992635E1,2.436720580E-2,1.131810131E-3,-1.025952548E-1
2.788981062E1,-6.837464124E-2,-3.721657768E-2,-8.175663650E-2
2.790971219E1,-1.446053833E-1,-6.704310328E-2,-5.565842614E-2
2.792959156E1,-1.947379112E-1,-8.415340632E-2,-2.742975019E-2
2.794945995E1,-2.352167666E-1,-8.308817446E-2,2.463351469E-3
2.796935547E1,-2.704360485E-1,-5.106460676E-2,1.684399694E-2
2.798926792E1,-2.762948275E-1,-6.324821152E-3,1.205044892E-2
2.800918234E1,-2.591845095E-1,2.942706272E-2,9.387366474E-3
2.802902703E1,-2.570540309E-1,6.031882018E-2,2.643109486E-2
2.804891682E1,-2.757622004E-1,1.023955271E-1,3.708342463E-2
2.806882323E1,-2.928059399E-1,1.301581562E-1,3.655080870E-2
2.808870599E1,-3.055887222E-1,1.322886199E-1,4.773575440E-2
2.810857943E1,-3.050560951E-1,1.386800259E-1,6.211639941E-2
2.812850073E1,-2.880123854E-1,1.674413085E-1,5.199668556E-2
2.814838396E1,-2.629128397E-1,1.967352182E-1,3.388772532E-2
2.816829838E1,-2.298905998E-1,2.287587970E-1,5.126433913E-3
2.818819536E1,-1.968683749E-1,2.436720580E-1,-3.754946589E-2
2.820805151E1,-1.824877262E-1,2.154433727E-1,-6.258244067E-2
2.822794620E1,-1.904769838E-1,1.711696386E-1,-5.991935730E-2
2.824784552E1,-2.064554691E-1,1.631803811E-1,-5.193011090E-2
2.826774604E1,-2.117816359E-1,1.919416785E-1,-5.246272683E-2
2.828761474E1,-2.123142630E-1,2.202369273E-1,-6.631075591E-2
2.830753437E1,-2.101837844E-1,2.250304818E-1,-8.069140464E-2
2.832742698E1,-2.187056541E-1,2.009961605E-1,-7.802832127E-2
2.834730906E1,-2.410755455E-1,1.818219572E-1,-4.820179567E-2
2.836722354E1,-2.570540309E-1,1.967352182E-1,-2.583190054E-2
2.838708297E1,-2.725664973E-1,2.170412242E-1,-1.797580742E-3
2.840700104E1,-2.848166823E-1,2.154433727E-1,4.081173986E-2
2.842689396E1,-2.901428342E-1,2.021279633E-1,8.934641629E-2
2.844676963E1,-2.741643488E-1,1.951373816E-1,1.085206121E-1
2.846666661E1,-2.368146181E-1,1.871481240E-1,1.223686412E-1
2.848656896E1,-2.069880962E-1,1.685065478E-1,1.447385401E-1
2.850647062E1,-1.872812808E-1,1.472018957E-1,1.724345982E-1
2.852636307E1,-1.718354076E-1,1.456040442E-1,1.964689195E-1
2.854626140E1,-1.611164957E-1,1.722348630E-1,2.071212530E-1
2.856611656E1,-1.499315500E-1,2.069215178E-1,1.985993832E-1
2.858602489E1,-1.398118287E-1,2.095845938E-1,1.847513467E-1
2.860594880E1,-1.360835135E-1,1.743653268E-1,1.761629134E-1
2.862578974E1,-1.408770680E-1,1.424083412E-1,1.623148769E-1
2.864568265E1,-1.307573467E-1,1.312233955E-1,1.330209672E-1
2.866558557E1,-1.083874628E-1,1.131144315E-1,1.047922969E-1
2.868548187E1,-8.441971987E-2,8.535179496E-2,7.969274372E-2
2.870536411E1,-6.677679718E-2,4.007939249E-2,6.531210244E-2
2.872525547E1,-6.145063043E-2,-1.804238372E-2,7.436657697E-2
2.874518911E1,-5.292876437E-2,-5.319507420E-2,1.218360290E-1
2.876503265E1,-3.428718820E-2,-4.201012850E-2,1.804904193E-1
2.878491786E1,-1.990654133E-2,-5.259587895E-3,2.332194597E-1
2.880484021E1,-1.617822610E-2,1.284937374E-2,2.641112208E-1
2.882473333E1,-1.777607575E-2,-2.177070081E-2,2.737648785E-1
2.884461427E1,-1.884130947E-2,-8.894696087E-2,2.796236575E-1
2.886448859E1,-7.323477184E-4,-1.363498271E-1,2.908086181E-1
2.888442042E1,3.235645220E-2,-1.283605844E-1,2.987978756E-1
2.890432120E1,6.484606117E-2,-6.171693653E-2,2.860150635E-1
2.892420651E1,8.615072072E-2,6.457975134E-3,2.470674813E-1
2.894408286E1,1.026618332E-1,6.457975134E-3,1.788925678E-1
2.896395390E1,1.139133573E-1,-6.704310328E-2,8.129059523E-2
2.898385469E1,1.240330711E-1,-1.677742004E-1,-2.902759984E-2
2.900374807E1,1.362832487E-1,-2.344178408E-1,-1.499981284E-1
2.902364620E1,1.517291218E-1,-2.450701743E-1,-2.688381970E-1
2.904352901E1,1.772947162E-1,-2.280264497E-1,-3.445363045E-1
2.906342448E1,2.066552043E-1,-2.067217827E-1,-3.856143653E-1
2.908330005E1,2.290250957E-1,-2.205698192E-1,-4.095821083E-1
2.910319161E1,2.263620198E-1,-3.170399666E-1,-3.941362202E-1
2.912310833E1,2.194380015E-1,-4.369452596E-1,-3.354818225E-1
2.914297510E1,2.460688353E-1,-4.700340629E-1,-2.768274248E-1
2.916288333E1,2.625799477E-1,-4.246951044E-1,-2.422073632E-1
2.918275318E1,2.375469655E-1,-3.906076252E-1,-2.102503628E-1
2.920267818E1,2.039921284E-1,-3.938033283E-1,-1.739658713E-1
2.922253156E1,1.943384558E-1,-3.964664042E-1,-1.372153312E-1
2.924246297E1,1.719685495E-1,-3.639768064E-1,-1.105845049E-1
2.926233781E1,1.288266182E-1,-3.010614812E-1,-1.425414979E-1
2.928226036E1,1.037270650E-1,-2.429397106E-1,-2.225005478E-1
2.930214698E1,9.946613014E-2,-1.640458852E-1,-3.035248220E-1
2.932200703E1,6.165036187E-2,-5.745600536E-2,-3.936035931E-1
2.934192323E1,1.930734841E-3,7.310161740E-2,-5.039218068E-1
2.936179870E1,-1.046591476E-1,2.079867423E-1,-5.566508174E-1
2.938166786E1,-6.358109415E-2,1.908764392E-1,-3.716997504E-1
2.940157281E1,1.258306485E-2,2.750964165E-1,-3.461341560E-1
2.942146755E1,-5.186353251E-2,2.873466015E-1,-3.365470469E-1
2.944135609E1,-1.328878254E-1,3.603816330E-1,-1.521285921E-1
2.946126646E1,-8.548495173E-2,4.344819188E-1,1.684399694E-2
2.948117417E1,-4.493951797E-2,2.458025217E-1,1.170424819E-1
2.950102630E1,-4.866783321E-2,-7.396712154E-2,1.938058287E-1
2.952092713E1,-6.464632601E-2,-2.013956159E-1,2.316216081E-1
2.954084021E1,-7.849435508E-2,-1.166430190E-1,2.571871877E-1
2.956070927E1,-1.014634445E-1,5.765573680E-2,2.711018026E-1
2.958061385E1,-1.280942708E-1,2.154433727E-1,2.534588873E-1
2.960052245E1,-1.376813650E-1,2.505960763E-1,2.081864774E-1
2.962040250E1,-1.398118287E-1,1.525280476E-1,1.623148769E-1
2.964028333E1,-1.360835135E-1,1.178414002E-2,1.154446304E-1
2.966017370E1,-1.158440933E-1,-7.290188223E-2,7.916013151E-2
2.968006906E1,-8.548495173E-2,-5.745600536E-2,5.465976894E-2
2.969997406E1,-5.878754705E-2,1.391460653E-2,2.802894451E-2
2.971987062E1,-1.191729400E-2,8.854749799E-2,-3.009283356E-2
2.973973599E1,5.525896326E-2,1.456040442E-1,-1.084540337E-1
2.975962729E1,1.031944528E-1,1.317560077E-1,-1.499981284E-1
2.977951385E1,1.064567268E-1,4.913387448E-2,-1.404110342E-1
2.979940437E1,1.010639817E-1,-6.065170467E-2,-9.613727778E-2
2.981929510E1,1.181742921E-1,-1.081211492E-1,-5.139749497E-2
2.983920448E1,1.149785891E-1,-4.999937490E-2,-2.210358530E-2
2.985907234E1,7.922670245E-2,5.605788901E-2,4.061201122E-3
2.987898760E1,4.673709720E-2,1.221689135E-1,2.909417637E-2
2.989889338E1,3.395430371E-2,1.125818118E-1,5.412715301E-2
2.991876182E1,1.904104091E-2,6.884068251E-2,7.862751186E-2
2.993864073E1,-7.123745978E-3,4.380770773E-2,1.053249165E-1
2.995853692E1,-2.470009029E-2,5.712312087E-2,1.181077138E-1
2.997843297E1,-2.842840552E-2,7.256899774E-2,1.276948154E-1
2.999833552E1,-3.481980413E-2,6.724283099E-2,1.452711523E-1
3.001826198E1,-3.908073530E-2,4.593817517E-2,1.633801162E-1
3.003813484E1,-4.493951797E-2,2.197043039E-2,1.681736708E-1
3.005799640E1,-6.624417752E-2,2.197043039E-3,1.639127284E-1
3.007789609E1,-8.335448056E-2,-2.443378232E-2,1.788925678E-1
3.009779083E1,-9.613727778E-2,-4.627105966E-2,2.012624592E-1
3.011765229E1,-1.083874628E-1,-4.307536036E-2,2.135126442E-1
3.013756286E1,-1.121157780E-1,-3.987966105E-2,2.215018868E-1
3.015744203E1,-1.163767055E-1,-6.384740770E-2,2.215018868E-1
3.017733818E1,-1.121157780E-1,-1.075885370E-1,2.241649777E-1
3.019724963E1,-1.062569916E-1,-1.336867511E-1,2.156431079E-1
3.021712078E1,-1.057243794E-1,-1.342193633E-1,2.028603107E-1
3.023701917E1,-1.057243794E-1,-1.331541240E-1,1.858165860E-1
3.025689781E1,-1.131810099E-1,-1.363498271E-1,1.676410437E-1
3.027679724E1,-1.243659556E-1,-1.501978636E-1,1.607170254E-1
3.029669948E1,-1.259638071E-1,-1.597849578E-1,1.665758193E-1
3.031660531E1,-1.019960642E-1,-1.491326243E-1,1.708367467E-1
3.033649260E1,-1.009308323E-1,-1.400781423E-1,1.596518010E-1
3.035638833E1,-8.601756394E-2,-1.320888996E-1,1.564560980E-1
3.037629854E1,-5.559184775E-2,-1.240996495E-1,1.521951705E-1
3.039621213E1,-2.363485843E-2,-1.155777797E-1,1.324883550E-1
3.041606005E1,3.528584493E-3,-1.081211492E-1,1.175750941E-1
3.043594047E1,2.809552103E-2,-9.640359133E-2,1.031944528E-1
3.045586104E1,4.993279651E-2,-7.882724702E-2,8.182321489E-2
3.047573745E1,7.762885839E-2,-7.236927003E-2,4.613790661E-2
3.049562057E1,1.160438210E-1,-8.042509109E-2,1.258306485E-2
3.051550432E1,1.607836038E-1,-8.468602598E-2,-1.517957076E-2
3.053538239E1,1.954036802E-1,-6.970618665E-2,-3.861469775E-2
3.055529583E1,2.119813710E-1,-5.372769013E-2,-5.139749497E-2
3.057525531E1,2.274272442E-1,-5.745600536E-2,-5.406057462E-2
3.059507036E1,2.412752807E-1,-8.042509109E-2,-4.181039706E-2
3.061496547E1,2.439383566E-1,-9.800143540E-2,-2.529928461E-2
3.063486760E1,2.348838747E-1,-9.746882319E-2,-1.145125460E-2
3.065476896E1,2.173075378E-1,-8.947957307E-2,8.655018173E-4
3.067465635E1,1.948710680E-1,-8.947957307E-2,6.191667169E-3
3.069455521E1,1.698380858E-1,-1.113168523E-1,9.919982404E-3
3.071442130E1,1.368158609E-1,-1.251648813E-1,2.696371078E-2
3.073433375E1,1.042596847E-1,-9.427312016E-2,4.720313847E-2
3.075424333E1,7.123745978E-2,-3.615134582E-2,5.199668556E-2
3.077412448E1,3.928046674E-2,-4.726971500E-3,5.039883777E-2
3.079402198E1,2.995967865E-3,-1.271621883E-2,6.318163127E-2
3.081390281E1,-4.600474983E-2,-3.402087837E-2,7.330134511E-2
3.083378875E1,-8.495233208E-2,-5.479292199E-2,6.744256616E-2
3.085369437E1,-8.761541545E-2,-6.704310328E-2,5.785546824E-2
3.087356344E1,-7.210296392E-2,-5.106460676E-2,5.199668556E-2
3.089343505E1,-5.612446368E-2,-1.271621883E-2,4.933360592E-2
3.091334880E1,-4.493951797E-2,2.942706272E-2,4.880098626E-2
3.093324583E1,-3.748288751E-2,6.085143611E-2,4.294220731E-2
3.095315292E1,-2.842840552E-2,7.469946891E-2,2.536586113E-2
3.097302359E1,-2.097177505E-2,7.310161740E-2,-3.928046674E-3
3.099290276E1,-1.777607575E-2,6.511236727E-2,-3.808208182E-2
3.101281625E1,-1.830869168E-2,6.138405204E-2,-6.790860742E-2
3.103271333E1,-1.830869168E-2,6.457975507E-2,-1.073888019E-1
3.105258344E1,-2.416747436E-2,6.244928762E-2,-1.452045739E-1
3.107246109E1,-3.961335123E-2,5.712312087E-2,-1.617156863E-1
3.109238031E1,-5.026568472E-2,5.392742157E-2,-1.814225018E-1
3.111227667E1,-5.452661589E-2,4.167724028E-2,-2.038589716E-1
3.113218682E1,-6.038539857E-2,1.071890723E-2,-1.964023411E-1
3.115203640E1,-6.304848194E-2,-5.792204756E-3,-1.803572625E-1
3.117194036E1,-5.292876437E-2,-4.660394625E-4,-1.766289473E-1
3.119186010E1,-4.653736949E-2,1.284937374E-2,-1.803572625E-1
3.121174166E1,-4.706998542E-2,1.664426550E-2,-1.750310957E-1
3.123162719E1,-4.973306507E-2,6.457975134E-3,-1.723680198E-1
3.125148885E1,-5.292876437E-2,-8.987903595E-3,-1.872812808E-1
3.127138698E1,-4.920044914E-2,-1.750976779E-2,-1.948044896E-1
3.129130625E1,-3.641765565E-2,-7.922670804E-3,-1.942718774E-1
3.131121849E1,-1.458037738E-2,-4.726971500E-3,-1.910095960E-1
3.133110286E1,-6.591129117E-3,2.197043039E-3,-1.414762586E-1
3.135095286E1,4.061201122E-3,6.244928762E-2,-1.041931063E-1
3.137089515E1,1.637795754E-2,1.376147866E-1,-7.270215452E-2
3.139076927E1,2.383458801E-2,1.855502725E-1,-4.500609636E-2
3.141061989E1,2.543243766E-2,2.026605755E-1,-3.754946589E-2
3.143053192E1,2.809552103E-2,1.892785877E-1,-3.488638252E-2
3.145042911E1,3.075860441E-2,1.701043993E-1,-3.701684624E-2
3.147031250E1,2.756290510E-2,1.615825295E-1,-4.074516147E-2
3.149024885E1,2.117150649E-2,1.594520658E-1,-4.234301299E-2
3.151014771E1,1.478010789E-2,1.621151567E-1,-3.861469775E-2
3.153001167E1,7.789516356E-3,1.690391600E-1,-3.541899845E-2
3.154990094E1,3.528584493E-3,1.722348630E-1,-4.553871229E-2
3.156978979E1,4.593817517E-3,1.567889899E-1,-6.524552405E-2
3.158968656E1,1.045259926E-2,1.328212470E-1,-7.856093347E-2
3.160958739E1,1.797580719E-2,1.248319969E-1,-8.495233208E-2
3.162943818E1,2.916075476E-2,1.349517107E-1,-9.453943372E-2
3.164933213E1,3.501953557E-2,1.509302109E-1,-1.025952548E-1
3.166923495E1,3.448691964E-2,1.695717871E-1,-1.073888019E-1
3.168914417E1,2.596505545E-2,1.759631783E-1,-1.137802005E-1
3.170903411E1,1.478010789E-2,1.530606747E-1,-1.079214215E-1
3.172891687E1,1.691057347E-2,1.136470512E-1,-8.974587917E-2
3.174880692E1,2.117150649E-2,8.908011019E-2,-7.323476672E-2
3.176869219E1,1.098521519E-2,7.789516449E-2,-4.607132822E-2
3.178860927E1,4.061201122E-3,6.564498693E-2,-7.190322969E-3
3.180848359E1,1.744319126E-2,4.913387448E-2,3.069202602E-2
3.182841489E1,2.969337068E-2,3.049229458E-2,6.584471464E-2
3.184828479E1,2.596505545E-2,1.664426550E-2,7.862751186E-2
3.186818104E1,2.063889056E-2,-8.987903595E-3,7.276873291E-2
3.188805364E1,2.063889056E-2,-5.106460676E-2,6.904041767E-2
3.190794953E1,2.862813696E-2,-7.935985923E-2,6.318163127E-2
3.192782890E1,3.022598661E-2,-9.107742459E-2,6.051855162E-2
3.194771807E1,3.022598661E-2,-9.800143540E-2,6.371425092E-2
3.196763635E1,3.235645220E-2,-9.853405505E-2,7.702966034E-2
3.198751354E1,4.034570232E-2,-7.989247888E-2,9.254211932E-2
3.200741771E1,4.567186534E-2,-6.011908874E-2,9.999874979E-2
3.202727995E1,4.673709720E-2,-6.224955618E-2,1.047922969E-1
3.204721344E1,4.940018058E-2,-8.841434121E-2,1.117163152E-1
3.206706792E1,5.099803209E-2,-1.033276021E-1,1.186403260E-1
3.208696083E1,5.153064802E-2,-8.841434121E-2,1.234338731E-1
3.210684448E1,5.632419512E-2,-5.266245827E-2,1.239664927E-1
3.212674484E1,6.165036187E-2,-2.656424791E-2,1.244991124E-1
3.214662823E1,6.165036187E-2,-2.123808302E-2,1.229012609E-1
3.216653177E1,6.324820966E-2,-3.987966105E-2,1.207707971E-1
3.218642276E1,6.271559745E-2,-6.331478804E-2,1.314231306E-1
3.220634651E1,6.005251035E-2,-6.065170467E-2,1.319557428E-1
3.222623474E1,5.472634733E-2,-4.414059222E-2,1.292926520E-1
3.224608130E1,5.099803209E-2,-3.189041466E-2,1.223686412E-1
3.226596755E1,5.792204663E-2,-3.774919361E-2,1.010639817E-1
3.228588864E1,6.697652489E-2,-6.331478804E-2,7.756228000E-2
3.230576312E1,7.283531129E-2,-8.628387749E-2,6.264901906E-2
3.232565026E1,7.816147059E-2,-9.480573982E-2,4.986622185E-2
3.234556916E1,8.774857223E-2,-9.161003679E-2,4.081173986E-2
3.236546974E1,9.786828607E-2,-9.001219273E-2,3.069202602E-2
3.238532807E1,1.058575287E-1,-9.267527610E-2,1.311568171E-2
3.240526364E1,1.107176542E-1,-1.113168523E-1,-7.722939365E-3
3.242516130E1,1.128481254E-1,-1.272953451E-1,-2.316881903E-2
3.244501000E1,1.037270650E-1,-1.262301207E-1,-3.595161438E-2
3.246490208E1,7.816147059E-2,-1.166430190E-1,-4.926702753E-2
3.248480823E1,5.153064802E-2,-1.134473160E-1,-6.311506033E-2
3.250472344E1,3.342168778E-2,-1.230344176E-1,-8.335448056E-2
3.252460484E1,1.850842312E-2,-1.326215118E-1,-1.004647911E-1
3.254446547E1,3.528584493E-3,-1.320888996E-1,-1.068561897E-1
3.256437500E1,-1.298252773E-2,-1.134473160E-1,-1.079214215E-1
3.258428073E1,-2.842840552E-2,-8.202294260E-2,-1.137802005E-1
3.260417604E1,-3.908073530E-2,-6.331478804E-2,-1.281608492E-1
3.262404083E1,-4.067858681E-2,-7.236927003E-2,-1.446719617E-1
3.264394521E1,-4.440690205E-2,-9.693620354E-2,-1.590526104E-1
3.266384177E1,-5.239614844E-2,-1.038602218E-1,-1.659766138E-1
3.268373354E1,-5.878754705E-2,-8.894696087E-2,-1.643787771E-1
3.270360776E1,-6.837464124E-2,-6.278216839E-2,-1.553242952E-1
3.272349083E1,-7.050511241E-2,-3.668396175E-2,-1.553242952E-1
3.274339068E1,-7.689651102E-2,-8.987903595E-3,-1.569221467E-1
3.276328729E1,-9.187635034E-2,1.770949923E-2,-1.553242952E-1
3.278320245E1,-1.035939083E-1,2.995967865E-2,-1.446719617E-1
3.280309073E1,-1.142462417E-1,3.528584540E-2,-1.212368309E-1
3.282294828E1,-1.222354919E-1,4.806863889E-2,-9.826774895E-2
3.284286844E1,-1.254311949E-1,6.777545065E-2,-7.962616533E-2
3.286275760E1,-1.131810099E-1,8.428656310E-2,-6.204982474E-2
3.288264323E1,-9.294158220E-2,9.866721183E-2,-4.394086078E-2
3.290255588E1,-7.796174288E-2,1.141796634E-1,-3.115806542E-2
3.292243969E1,-5.932016298E-2,1.253646165E-1,-3.275591508E-2
3.294234125E1,-3.908073530E-2,1.248319969E-1,-4.234301299E-2
3.296226531E1,-2.256962471E-2,1.338864714E-1,-5.885412544E-2
3.298207979E1,-4.993279930E-3,1.461366564E-1,-7.909355313E-2
3.300200187E1,8.854749613E-3,1.472018957E-1,-9.993217140E-2
3.302189916E1,2.276935615E-2,1.477345079E-1,-1.244325340E-1
3.304176531E1,2.756290510E-2,1.509302109E-1,-1.361500919E-1
3.306165651E1,2.010627277E-2,1.503975838E-1,-1.324217767E-1
3.308155292E1,2.995967865E-3,1.386800259E-1,-1.329544038E-1
3.310146625E1,-1.298252773E-2,1.120491996E-1,-1.254977584E-1
3.312133312E1,-2.256962471E-2,7.789516449E-2,-1.111171171E-1
3.314123812E1,-3.481980413E-2,5.179695413E-2,-9.613727778E-2
3.316113385E1,-4.706998542E-2,3.901416063E-2,-7.909355313E-2
3.318101969E1,-5.399399996E-2,3.901416063E-2,-6.098458916E-2
3.320089661E1,-5.932016298E-2,3.794892505E-2,-4.181039706E-2
3.322080989E1,-6.571156532E-2,1.444722246E-2,-3.115806542E-2
3.324068495E1,-6.837464124E-2,-2.922733128E-2,-2.849498391E-2
3.326058224E1,-6.837464124E-2,-7.776200771E-2,-2.476666868E-2
3.328047338E1,-6.091801450E-2,-1.043928340E-1,-1.677742042E-2
3.330037375E1,-4.866783321E-2,-1.006645188E-1,-1.038602181E-2
3.332028396E1,-3.801550344E-2,-8.202294260E-2,-1.997311920E-4
3.334018026E1,-3.162410483E-2,-7.236927003E-2,1.098521519E-2
3.336005573E1,-2.363485843E-2,-8.628387749E-2,1.577876508E-2
3.337994229E1,-1.404776052E-2,-1.129147038E-1,2.589847706E-2
3.339982390E1,-7.123745978E-3,-1.225017980E-1,3.548557684E-2
3.341973666E1,-1.797580742E-3,-1.070559174E-1,4.027912393E-2
3.343960890E1,1.151783206E-2,-8.362079412E-2,4.880098626E-2
3.345951260E1,1.531272475E-2,-6.544525176E-2,5.625762045E-2
3.347940260E1,5.659050308E-3,-5.692338943E-2,5.359453708E-2
3.349929333E1,-1.511299331E-2,-5.798862129E-2,4.400743917E-2
3.351916927E1,-4.440690205E-2,-6.491263956E-2,3.282249346E-2
3.353906880E1,-7.636389136E-2,-8.575125784E-2,2.483324520E-2
3.355897260E1,-9.240896255E-2,-1.278279573E-1,3.069202602E-2
3.357887755E1,-9.027849883E-2,-1.955368370E-1,4.507267103E-2
3.359876927E1,-8.175663650E-2,-2.973331809E-1,6.158378348E-2
3.361862416E1,-6.677679718E-2,-3.634441793E-1,7.063826174E-2
3.363852588E1,-3.162410483E-2,-3.613137305E-1,6.850779802E-2
3.365842916E1,9.387366474E-3,-3.181052208E-1,7.489919662E-2
3.367833943E1,4.087831825E-2,-2.525267899E-1,8.235582709E-2
3.369822375E1,7.816147059E-2,-1.912759095E-1,8.934641629E-2
3.371809729E1,1.213699877E-1,-1.512630880E-1,9.573781490E-2
3.373798265E1,1.501312852E-1,-1.203713343E-1,9.946613014E-2
3.375789739E1,1.650445461E-1,-8.362079412E-2,9.254211932E-2
3.377777729E1,1.730337888E-1,-5.639077350E-2,7.489919662E-2
3.379766104E1,1.703707129E-1,-4.573844373E-2,5.945331976E-2
3.381756510E1,1.602509916E-1,-3.135779873E-2,4.613790661E-2
3.383746286E1,1.448051184E-1,-7.922670804E-3,3.175725788E-2
3.385732995E1,1.250983030E-1,1.770949923E-2,1.684399694E-2
3.387723458E1,9.840089828E-2,2.836182900E-2,5.126433913E-3
3.389714120E1,6.591129303E-2,2.197043039E-2,-5.525896326E-3
3.391702635E1,4.300878197E-2,8.055824786E-3,-1.837527007E-2
3.393692521E1,2.543243766E-2,-1.005313639E-2,-3.808208182E-2
3.395681958E1,8.322132751E-3,-2.922733128E-2,-4.873441160E-2
3.397670281E1,-8.721595630E-3,-3.881442919E-2,-5.193011090E-2
3.399656406E1,-1.511299331E-2,-4.680367559E-2,-5.619104207E-2
3.401649573E1,-1.404776052E-2,-5.798862129E-2,-5.352795869E-2
3.403637396E1,-9.786828421E-3,-6.757572293E-2,-4.820179567E-2
3.405626099E1,-8.721595630E-3,-6.704310328E-2,-4.500609636E-2
3.407615276E1,-8.188978769E-3,-6.224955618E-2,-4.447348043E-2
3.409601885E1,-1.031944528E-2,-5.745600536E-2,-4.021254554E-2
3.411591771E1,-1.351514366E-2,-4.573844373E-2,-3.861469775E-2
3.413579422E1,-1.884130947E-2,-2.656424791E-2,-4.660394415E-2
3.415570234E1,-2.523270808E-2,-1.218360290E-2,-5.938674137E-2
3.417559646E1,-2.683055587E-2,-1.005313639E-2,-5.832150951E-2
3.419548286E1,-1.617822610E-2,-1.531272428E-3,-5.459319428E-2
3.421537349E1,-6.591129117E-3,2.942706272E-2,-5.885412544E-2
3.423527458E1,-4.993279930E-3,6.511236727E-2,-6.790860742E-2
3.425520963E1,5.126433913E-3,9.174319357E-2,-8.282186836E-2
3.427504693E1,1.957365684E-2,9.547150880E-2,-9.294158220E-2
3.429494411E1,1.637795754E-2,9.280842543E-2,-9.027849883E-2
3.431483969E1,3.528584493E-3,1.007976755E-1,-9.773512930E-2
3.433472672E1,-2.330197254E-3,1.082543060E-1,-1.047257185E-1
3.435461776E1,7.256899960E-3,1.115165800E-1,-1.089866534E-1
3.437453380E1,1.478010789E-2,1.184405982E-1,-1.100518852E-1
3.439441052E1,8.854749613E-3,1.232341453E-1,-1.036604866E-1
3.441433828E1,-7.323477184E-4,1.290929317E-1,-9.880036116E-2
3.443424703E1,-9.254211560E-3,1.317560077E-1,-9.027849883E-2
3.445408620E1,-2.363485843E-2,1.290929317E-1,-8.015878499E-2
3.447396963E1,-3.162410483E-2,1.179079786E-1,-7.696308941E-2
3.449389531E1,-2.416747436E-2,9.547150880E-2,-8.069140464E-2
3.451375359E1,-1.351514366E-2,6.724283099E-2,-7.749570161E-2
3.453364463E1,-1.138467807E-2,5.073172227E-2,-6.524552405E-2
3.455354719E1,-1.138467807E-2,5.339480564E-2,-5.193011090E-2
3.457344635E1,-1.085206121E-2,5.286218971E-2,-3.275591508E-2
3.459334094E1,-1.404776052E-2,4.434032366E-2,-1.517957076E-2
3.461324745E1,-1.511299331E-2,3.155753016E-2,1.398118329E-3
3.463316370E1,-1.298252773E-2,2.410089783E-2,1.311568171E-2
3.465301599E1,-1.298252773E-2,2.037258074E-2,1.897446252E-2
3.467291646E1,-1.191729400E-2,1.338198967E-2,2.270277962E-2
3.469280635E1,-2.523270808E-2,1.018629037E-2,6.191667169E-3
3.471269318E1,-6.784202904E-2,-1.165098604E-2,-2.956021577E-2
3.473257885E1,-1.339530498E-1,-7.989247888E-2,-3.914731368E-2
3.475247906E1,-1.830203533E-1,-1.581871063E-1,-1.304910425E-2
3.477238677E1,-1.942052990E-1,-2.035260797E-1,1.258306485E-2
3.479229307E1,-1.851508170E-1,-2.189719677E-1,5.093145370E-2
3.481218828E1,-1.632469594E-1,-2.040587068E-1,1.005313694E-1
3.483204109E1,-1.307573467E-1,-1.667089611E-1,1.447385401E-1
3.485193739E1,-8.122401685E-2,-1.363498271E-1,1.810230315E-1
3.487183578E1,-2.470009029E-2,-1.230344176E-1,2.161757201E-1
3.489172562E1,1.311568171E-2,-1.075885370E-1,2.380129993E-1
3.491161729E1,3.342168778E-2,-8.681648970E-2,2.406760901E-1
3.493147698E1,5.472634733E-2,-6.544525176E-2,2.262954414E-1
3.495137130E1,7.762885839E-2,-4.414059222E-2,2.023276985E-1
3.497128437E1,9.680305421E-2,-2.443378232E-2,1.740324497E-1
3.499118916E1,1.187069044E-1,-7.922670804E-3,1.436733007E-1
3.501104713E1,1.416094154E-1,1.664426643E-3,1.149120107E-1
3.503097031E1,1.650445461E-1,1.231675688E-2,9.254211932E-2
3.505086198E1,1.788925678E-1,3.102491237E-2,8.022536337E-2
3.507072255E1,1.778273433E-1,5.339480564E-2,7.383396477E-2
3.509061286E1,1.820882708E-1,6.990591437E-2,7.223611325E-2
3.511050224E1,1.879470497E-1,7.576470077E-2,8.182321489E-2
3.513040635E1,1.746316403E-1,7.842778414E-2,9.840089828E-2
3.515030166E1,1.458703429E-1,6.511236727E-2,1.191729456E-1
3.517020739E1,1.266961545E-1,3.422060981E-2,1.436733007E-1
3.519010213E1,1.330875456E-1,2.356828004E-2,1.585865617E-1
3.520999870E1,1.442724913E-1,4.220985994E-2,1.527277827E-1
3.522988510E1,1.453377306E-1,6.138405204E-2,1.410102248E-1
3.524975078E1,1.405441761E-1,5.446003750E-2,1.213034093E-1
3.526964015E1,1.437398791E-1,2.516612969E-2,9.893351793E-2
3.528954646E1,1.400115639E-1,2.729659667E-3,7.862751186E-2
3.530944792E1,1.266961545E-1,-4.660394625E-4,6.850779802E-2
3.532934739E1,1.155112088E-1,4.327509087E-3,5.998593569E-2
3.534921458E1,1.155112088E-1,2.729659667E-3,4.134435579E-2
3.536910068E1,1.160438210E-1,-8.455286734E-3,2.057231218E-2
3.538902344E1,1.096524224E-1,-2.017285116E-2,4.593817517E-3
3.540890844E1,9.840089828E-2,-2.922733128E-2,-9.320789017E-3
3.542880635E1,9.254211932E-2,-3.721657768E-2,-2.263620123E-2
3.544865812E1,8.508548886E-2,-3.402087837E-2,-4.394086078E-2
3.546857015E1,7.283531129E-2,-2.123808302E-2,-6.737598777E-2
3.548847437E1,6.431344151E-2,-1.644453406E-2,-8.921326697E-2
3.550839370E1,5.259587988E-2,-3.668396175E-2,-1.095192730E-1
3.552827505E1,4.194355011E-2,-7.077141851E-2,-1.249651462E-1
3.554816260E1,4.034570232E-2,-9.320788831E-2,-1.425414979E-1
3.556803057E1,3.448691964E-2,-8.894696087E-2,-1.622482985E-1
3.558792604E1,2.330197208E-2,-8.575125784E-2,-1.691723168E-1
3.560787672E1,1.151783206E-2,-9.693620354E-2,-1.590526104E-1
3.562768979E1,-1.264964230E-3,-1.171756312E-1,-1.457371861E-1
3.564758828E1,-2.203700878E-2,-1.267627329E-1,-1.324217767E-1
3.566750156E1,-3.801550344E-2,-1.240996495E-1,-1.233673021E-1
3.568738010E1,-4.920044914E-2,-1.198387146E-1,-1.185737476E-1
3.570725943E1,-5.399399996E-2,-1.129147038E-1,-1.121823564E-1
3.572718942E1,-4.920044914E-2,-9.959928691E-2,-1.036604866E-1
3.574705922E1,-5.133091658E-2,-7.669677585E-2,-1.052583382E-1
3.576694911E1,-5.559184775E-2,-5.319507420E-2,-1.073888019E-1
3.578681870E1,-4.760260135E-2,-3.135779873E-2,-9.993217140E-2
3.580673969E1,-3.801550344E-2,-5.259587895E-3,-8.974587917E-2
3.582663177E1,-4.174381867E-2,2.197043039E-2,-8.708280325E-2
3.584652250E1,-4.547213390E-2,3.315537795E-2,-8.921326697E-2
3.586641937E1,-4.121120274E-2,2.516612969E-2,-9.400681406E-2
3.588633995E1,-4.440690205E-2,2.729659714E-2,-1.025952548E-1
3.590622844E1,-5.772231519E-2,4.753602296E-2,-1.121823564E-1
3.592609411E1,-6.464632601E-2,6.777545065E-2,-1.164432839E-1
3.594595437E1,-6.464632601E-2,7.736254483E-2,-1.260303855E-1
3.596587406E1,-7.103772461E-2,7.310161740E-2,-1.356174797E-1
3.598577578E1,-7.909355313E-2,6.138405204E-2,-1.350848675E-1
3.600565411E1,-8.015878499E-2,4.806863889E-2,-1.265629977E-1
3.602556312E1,-8.175663650E-2,3.794892505E-2,-1.180411354E-1
3.604541844E1,-7.909355313E-2,2.995967865E-2,-1.084540337E-1
3.606531213E1,-7.103772461E-2,2.037258074E-2,-9.560466558E-2
3.608522979E1,-6.517894566E-2,7.523208391E-3,-7.802832127E-2
3.610510661E1,-7.263557613E-2,-3.129122080E-3,-4.766917601E-2
3.612499849E1,-7.742912322E-2,-7.390053943E-3,-1.944050193E-2
3.614489125E1,-7.962616533E-2,-1.058575325E-2,3.328853054E-4
3.616478573E1,-7.476603985E-2,-2.070546709E-2,1.364829857E-2
3.618466198E1,-7.157034427E-2,-3.828181326E-2,2.270277962E-2
3.620455828E1,-6.517894566E-2,-5.319507420E-2,3.655080870E-2
3.622448297E1,-5.239614844E-2,-5.905385688E-2,6.105116755E-2
3.624435042E1,-3.908073530E-2,-4.573844373E-2,8.774857223E-2
3.626425562E1,-2.576532401E-2,-1.750976779E-2,1.106510833E-1
3.628413771E1,-2.363485843E-2,5.991935614E-4,1.324883550E-1
3.630403916E1,-3.375457227E-2,5.925358739E-3,1.362166703E-1
3.632390552E1,-3.268933669E-2,-1.111837011E-2,1.239664927E-1
3.634382677E1,-1.777607575E-2,-3.082518093E-2,1.197055578E-1
3.636369781E1,-1.244991086E-2,-2.283593267E-2,1.202381775E-1
3.638360698E1,-6.591129117E-3,1.231675688E-2,1.138467789E-1
3.640347099E1,8.854749613E-3,4.274247587E-2,1.031944528E-1
3.642336161E1,3.182383627E-2,4.913387448E-2,9.307473898E-2
3.644326666E1,5.312849581E-2,3.901416063E-2,9.200949967E-2
3.646320750E1,6.591129303E-2,3.475322574E-2,8.235582709E-2
3.648305640E1,7.496577501E-2,3.954677656E-2,7.010564953E-2
3.650294568E1,8.561810106E-2,5.019910634E-2,6.318163127E-2
3.652285729E1,9.413997084E-2,5.765573680E-2,5.625762045E-2
3.654274708E1,9.307473898E-2,5.552527308E-2,4.613790661E-2
3.656263031E1,8.881380409E-2,4.434032366E-2,3.442034125E-2
3.658251130E1,7.975932211E-2,3.581846133E-2,2.909417637E-2
3.660242510E1,6.591129303E-2,3.848154470E-2,3.069202602E-2
3.662232640E1,4.567186534E-2,4.913387448E-2,4.560529068E-2
3.664224495E1,2.703028731E-2,5.126433820E-2,6.158378348E-2
3.666207755E1,1.258306485E-2,3.102491237E-2,7.649704814E-2
3.668198703E1,1.205044892E-2,1.664426643E-3,9.413997084E-2
3.670188917E1,1.850842312E-2,-9.520520456E-3,1.069227681E-1
3.672176370E1,2.223674022E-2,1.131810131E-3,1.101184636E-1
3.674163318E1,2.489982173E-2,1.664426550E-2,1.058575287E-1
3.676154297E1,2.596505545E-2,2.090519853E-2,9.094426781E-2
3.678141942E1,2.543243766E-2,1.664426643E-3,7.010564953E-2
3.680130818E1,2.117150649E-2,-3.402087837E-2,4.826837033E-2
3.682122646E1,2.117150649E-2,-6.331478804E-2,3.122464381E-2
3.684109078E1,3.022598661E-2,-7.023879886E-2,1.737661287E-2
3.686101260E1,3.661738336E-2,-5.585815758E-2,4.593817517E-3
3.688092797E1,3.928046674E-2,-4.680367559E-2,-4.460663069E-3
3.690078864E1,4.141093418E-2,-5.905385688E-2,-4.460663069E-3
3.692069646E1,3.874785081E-2,-7.669677585E-2,-4.993279930E-3
3.694058010E1,2.489982173E-2,-9.427312016E-2,-6.591129117E-3
3.696045052E1,1.364829857E-2,-1.001319066E-1,-1.837527007E-2
3.698035989E1,7.256899960E-3,-1.027949899E-1,-4.234301299E-2
3.700025406E1,-4.460663069E-3,-1.113168523E-1,-5.619104207E-2
3.702014667E1,-2.150439098E-2,-1.081211492E-1,-6.524552405E-2
3.704002312E1,-2.949363925E-2,-1.027949899E-1,-7.270215452E-2
3.705992396E1,-2.842840552E-2,-1.011971384E-1,-7.270215452E-2
3.707980390E1,-2.789578959E-2,-9.427312016E-2,-7.430000603E-2
3.709970479E1,-2.576532401E-2,-8.362079412E-2,-7.589785010E-2
3.711958750E1,-2.310224064E-2,-6.278216839E-2,-8.069140464E-2
3.713949495E1,-2.736317366E-2,-3.721657768E-2,-8.282186836E-2
3.715939156E1,-3.428718820E-2,-1.537930220E-2,-8.708280325E-2
3.717928271E1,-3.854811937E-2,5.991935614E-4,-1.089866534E-1
3.719915656E1,-3.801550344E-2,-4.660394625E-4,-1.286934614E-1
3.721903547E1,-3.109148890E-2,-2.596505452E-3,-1.345522404E-1
3.723895453E1,-2.576532401E-2,1.284937374E-2,-1.223020703E-1
3.725881953E1,-3.109148890E-2,4.753602296E-2,-9.613727778E-2
3.727873042E1,-4.121120274E-2,8.641702682E-2,-7.376738638E-2
3.729863495E1,-5.612446368E-2,1.109839678E-1,-6.258244067E-2
3.731849073E1,-6.943988055E-2,1.131144315E-1,-5.406057462E-2
3.733842974E1,-8.175663650E-2,1.163101271E-1,-4.979964346E-2
3.735832062E1,-9.773512930E-2,1.312233955E-1,-4.287562892E-2
3.737819937E1,-1.185071766E-1,1.562563628E-1,-3.009283356E-2
3.739808614E1,-1.419423074E-1,1.828871965E-1,-3.009283356E-2
3.741795573E1,-1.621817350E-1,1.951373816E-1,-3.115806542E-2
3.743788505E1,-1.723680198E-1,1.940721422E-1,-3.754946589E-2
3.745776646E1,-1.766289473E-1,1.930069029E-1,-5.193011090E-2
3.747764713E1,-1.755637228E-1,1.903438270E-1,-5.672365800E-2
3.749754750E1,-1.680405140E-1,1.786262691E-1,-5.139749497E-2
3.751742536E1,-1.632469594E-1,1.637129933E-1,-4.127778113E-2
3.753730599E1,-1.552577168E-1,1.482671201E-1,-3.328853101E-2
3.755723713E1,-1.414096802E-1,1.296255440E-1,-3.328853101E-2
3.757711073E1,-1.270290315E-1,1.066564545E-1,-3.382114694E-2
3.759700166E1,-1.169093251E-1,8.481918275E-2,-2.742975019E-2
3.761690604E1,-1.083874628E-1,6.937330216E-2,-1.731003635E-2
3.763678969E1,-9.613727778E-2,4.647079110E-2,-1.264964230E-3
3.765667307E1,-7.849435508E-2,2.143781446E-2,1.418091450E-2
3.767655609E1,-6.251586229E-2,1.178414002E-2,2.430062927E-2
3.769646750E1,-4.600474983E-2,1.877473295E-2,2.856156044E-2
3.771634292E1,-2.683055587E-2,1.983996481E-2,2.376801148E-2
3.773625963E1,-1.884130947E-2,1.664426643E-3,3.015941009E-2
3.775614323E1,-1.937392540E-2,-1.697715186E-2,3.708342463E-2
3.777603786E1,-1.724345982E-2,-2.816209756E-2,4.027912393E-2
3.779592292E1,-9.786828421E-3,-2.869471535E-2,4.613790661E-2
3.781580302E1,-7.323477184E-4,-2.549901605E-2,5.359453708E-2
3.783570281E1,4.061201122E-3,-2.443378232E-2,5.732285231E-2
3.785559083E1,1.045259926E-2,-3.082518093E-2,5.572500080E-2
3.787547703E1,2.063889056E-2,-4.307536036E-2,5.199668556E-2
3.789537068E1,2.756290510E-2,-5.053199083E-2,4.826837033E-2
3.791524812E1,3.608476743E-2,-4.733629152E-2,4.081173986E-2
3.793522427E1,5.472634733E-2,-4.201012850E-2,3.335510939E-2
3.795505651E1,7.017222792E-2,-3.668396175E-2,2.749632671E-2
3.797492370E1,6.644391268E-2,-3.295564651E-2,1.950708032E-2
3.799484937E1,6.484606117E-2,-3.508611396E-2,1.151783206E-2
3.801472021E1,6.058513001E-2,-3.828181326E-2,6.191667169E-3
3.803461687E1,3.928046674E-2,-4.041227698E-2,9.387366474E-3
3.805449380E1,1.478010789E-2,-4.520582780E-2,2.323539555E-2
3.807438531E1,8.655018173E-4,-5.479292199E-2,3.974650800E-2
3.809429526E1,1.398118329E-3,-6.065170467E-2,5.785546824E-2
3.811418448E1,9.919982404E-3,-5.639077350E-2,7.702966034E-2
3.813405057E1,1.957365684E-2,-4.520582780E-2,9.360735118E-2
3.815397344E1,2.916075476E-2,-3.721657768E-2,1.010639817E-1
3.817385083E1,3.342168778E-2,-3.721657768E-2,1.053249165E-1
3.819373073E1,3.928046674E-2,-4.786890745E-2,1.026618332E-1
3.821361906E1,4.780233279E-2,-5.585815758E-2,9.573781490E-2
3.823352479E1,5.579157919E-2,-4.627105966E-2,9.094426781E-2
3.825341312E1,6.537867337E-2,-2.656424791E-2,9.467258304E-2
3.827329073E1,6.910699606E-2,-1.111837011E-2,1.015966013E-1
3.829319187E1,6.537867337E-2,-4.194355104E-3,1.042596847E-1
3.831307776E1,7.123745978E-2,-9.520520456E-3,1.037270650E-1
3.833297864E1,8.402025700E-2,-2.336854860E-2,9.840089828E-2
3.835289802E1,9.467258304E-2,-2.709686570E-2,8.828118443E-2
3.837279922E1,1.031944528E-1,-1.804238372E-2,7.010564953E-2
3.839267969E1,1.047922969E-1,-1.324883569E-2,5.039883777E-2
3.841255844E1,1.133807376E-1,-1.697715186E-2,2.589847706E-2
3.843244630E1,1.165764406E-1,-3.029256500E-2,5.659050308E-3
3.845236068E1,1.144459695E-1,-3.615134582E-2,-1.890788600E-2
3.847225588E1,1.107176542E-1,-4.254274443E-2,-4.074516147E-2
3.849217635E1,9.094426781E-2,-5.745600536E-2,-4.287562892E-2
3.851202489E1,6.271559745E-2,-7.130403817E-2,-4.660394415E-2
3.853191031E1,4.300878197E-2,-9.107742459E-2,-4.500609636E-2
3.855180557E1,3.288906813E-2,-1.129147038E-1,-3.808208182E-2
3.857171844E1,2.756290510E-2,-1.102516204E-1,-4.021254554E-2
3.859156864E1,1.904104091E-2,-9.746882319E-2,-4.660394415E-2
3.861148114E1,3.528584493E-3,-9.267527610E-2,-5.299534276E-2
3.863138021E1,-1.724345982E-2,-9.746882319E-2,-6.045197323E-2
3.865126026E1,-3.588503599E-2,-1.033276021E-1,-6.258244067E-2
3.867118344E1,-4.493951797E-2,-1.011971384E-1,-5.885412544E-2
3.869103078E1,-5.026568472E-2,-8.468602598E-2,-5.725627393E-2
3.871094177E1,-5.452661589E-2,-5.639077350E-2,-5.565842614E-2
3.873084979E1,-5.932016298E-2,-3.561872989E-2,-5.086487532E-2
3.875073396E1,-6.304848194E-2,-3.082518093E-2,-4.287562892E-2
3.877062042E1,-6.624417752E-2,-2.762948163E-2,-3.328853101E-2
3.879052260E1,-6.997249275E-2,-1.378145255E-2,-3.222329915E-2
3.881038573E1,-6.837464124E-2,5.925358739E-3,-3.169068322E-2
3.883028406E1,-6.145063043E-2,2.942706272E-2,-3.169068322E-2
3.885020380E1,-5.505923182E-2,6.244928762E-2,-2.956021577E-2
3.887009932E1,-4.706998542E-2,1.109839678E-1,-3.595161438E-2
3.888994422E1,-4.493951797E-2,1.647782326E-1,-5.139749497E-2
3.890987349E1,-5.612446368E-2,2.069215178E-1,-7.270215452E-2
3.892976323E1,-6.837464124E-2,2.356828004E-1,-9.666989744E-2
3.894961880E1,-8.228924870E-2,2.628462613E-1,-1.212368309E-1
3.896953573E1,-9.027849883E-2,2.980655134E-1,-1.489328891E-1
3.898944901E1,-9.240896255E-2,3.273594379E-1,-1.702375561E-1
3.900933104E1,-9.134373069E-2,3.358812928E-1,-1.808898896E-1
3.902922125E1,-8.069140464E-2,3.257615864E-1,-1.824877262E-1
3.904908828E1,-6.038539857E-2,2.996633649E-1,-1.579873711E-1
3.906900187E1,-3.481980413E-2,2.937380075E-1,-1.180411354E-1
3.908889906E1,-4.993279930E-3,3.321529627E-1,-9.240896255E-2
3.910877250E1,2.436720580E-2,3.736970723E-1,-7.643046975E-2
3.912864682E1,3.288906813E-2,3.795558512E-1,-5.938674137E-2
3.914854552E1,1.850842312E-2,3.300225139E-1,-4.873441160E-2
3.916844594E1,1.098521519E-2,2.442046702E-1,-3.754946589E-2
3.918836979E1,1.258306485E-2,1.828871965E-1,-2.583190054E-2
3.920827989E1,7.256899960E-3,1.946047544E-1,-1.411433797E-2
3.922812604E1,-5.525896326E-3,2.548570037E-1,-1.038602181E-2
3.924803036E1,-2.842840552E-2,2.804225981E-1,-1.731003635E-2
3.926791646E1,-5.772231519E-2,2.303566486E-1,-3.062544949E-2
3.928777833E1,-8.228924870E-2,1.232341453E-1,-3.009283356E-2
3.930769015E1,-8.814803511E-2,1.071890723E-2,-2.263620123E-2
3.932758469E1,-1.153114736E-1,-5.426030606E-2,3.328853054E-4
3.934748354E1,-1.675078869E-1,-7.236927003E-2,4.667052254E-2
3.936735463E1,-2.059228569E-1,-7.343450189E-2,1.031944528E-1
3.938724005E1,-2.245644331E-1,-9.427312016E-2,1.564560980E-1
3.940716963E1,-2.495974153E-1,-1.294258088E-1,1.932732165E-1
3.942702359E1,-2.944037914E-1,-1.843518913E-1,2.289585173E-1
