"Time (s)","Linear Acceleration x (m/s^2)","Linear Acceleration y (m/s^2)","Linear Acceleration z (m/s^2)"
4.330860900E-2,5.699410439E-1,5.498566628E-1,-7.484332919E-1
6.323902600E-2,5.790925026E-1,6.803646088E-1,-8.282918930E-1
8.307959800E-2,6.643657684E-1,9.323644638E-1,-7.690293193E-1
1.029686090E-1,7.474784851E-1,1.092496872E0,-6.553723216E-1
1.228553280E-1,6.504650116E-1,1.339489937E0,-6.455339789E-1
1.427747550E-1,6.232147217E-1,1.370746613E0,-1.006413102E0
1.626640260E-1,7.452487946E-1,1.363795757E0,-1.254982591E0
1.825454840E-1,8.693733215E-1,1.494312286E0,-9.048366547E-1
2.024386610E-1,7.690410614E-1,1.516421795E0,-8.479703665E-1
2.223519420E-1,5.916690826E-1,1.501828671E0,-1.069750309E0
2.422567340E-1,5.660371780E-1,1.560647011E0,-1.287743807E0
2.621072030E-1,7.676639557E-1,1.442647457E0,-1.446268678E0
2.819790780E-1,9.516105652E-1,1.211614609E0,-1.440992594E0
3.018846510E-1,8.209638596E-1,9.430127144E-1,-1.287895203E0
3.217906920E-1,6.481714249E-1,6.146678925E-1,-1.096188068E0
3.416798590E-1,7.721967697E-1,1.658654213E-1,-8.146088123E-1
3.615550150E-1,1.147364616E0,9.624958038E-2,-4.027402401E-1
3.814829320E-1,2.171742439E0,-1.311016083E-1,-6.653591394E-1
4.013667340E-1,3.562628746E0,-3.159680367E-1,-7.970063686E-1
4.212474110E-1,5.353512764E0,-5.927748680E-1,-1.218480945E0
4.412154840E-1,6.270648003E0,-8.308558464E-1,-1.598216176E0
4.610118380E-1,6.807211876E0,-9.141716957E-1,-2.076494455E0
4.809148070E-1,6.676628113E0,-1.145303726E0,-2.371910095E0
5.007889730E-1,6.219560146E0,-1.649044991E0,-3.035516739E0
5.207252760E-1,5.487596512E0,-2.083522320E0,-3.339274406E0
5.405786610E-1,4.167992592E0,-2.774368286E0,-3.082972765E0
5.604626710E-1,3.006752014E0,-3.517346859E0,-3.501624584E0
5.803719940E-1,1.301642418E0,-4.347682953E0,-3.896930218E0
6.002694420E-1,-6.498136520E-1,-4.494198799E0,-3.867317677E0
6.202345460E-1,-2.621040344E0,-4.309935570E0,-3.657672405E0
6.400535050E-1,-4.350927830E0,-3.919408321E0,-3.071099281E0
6.599498070E-1,-5.345995426E0,-3.354660988E0,-2.320174694E0
6.798260570E-1,-6.037428856E0,-2.556163788E0,-1.912537932E0
6.997028800E-1,-5.542725563E0,-1.805597305E0,-1.847506046E0
7.196107960E-1,-3.961454391E0,-1.688879967E0,-1.729741812E0
7.394941820E-1,-2.149009228E0,-1.469738483E0,-1.897625446E0
7.593690780E-1,-8.435537815E-1,-9.355273247E-1,-2.629984379E0
7.792673070E-1,-7.373690605E-2,-9.547052383E-1,-3.497384787E0
7.991797550E-1,-6.261267662E-1,-1.320203304E0,-3.467727661E0
8.190711610E-1,-2.683962345E0,-2.334188938E0,-2.696660995E0
8.389484530E-1,-6.032889366E0,-3.576057911E0,-1.503099442E0
8.588232440E-1,-9.479204178E0,-4.983461857E0,-1.053703070E0
8.787238170E-1,-1.319740677E1,-6.750122547E0,-5.145409107E-1
8.986235050E-1,-1.702375221E1,-8.636163712E0,1.043564558E0
9.185059530E-1,-1.949225044E1,-9.265667915E0,2.322186470E0
9.384249630E-1,-1.863998032E1,-1.013369083E1,9.722968340E-1
9.583087650E-1,-1.536669540E1,-9.951020241E0,-1.405071020E0
9.782161090E-1,-1.196723366E1,-3.838396788E0,-1.008892775E0
9.980831920E-1,-9.656377792E0,4.075517178E0,-8.725814819E-1
1.017971161E0,-5.607841492E0,1.063792419E1,-3.356089592E0
1.037830171E0,1.017085075E0,1.843487549E1,-1.000445652E1
1.057756005E0,6.420815468E0,2.153107071E1,-2.593478203E1
1.077637046E0,1.176750851E1,2.480340767E1,-4.265946960E1
1.097528036E0,1.194617081E1,2.995658875E1,-5.103967285E1
1.117401786E0,1.091394806E1,2.444257355E1,-5.925933838E1
1.137287932E0,1.030014610E1,1.228518295E1,-5.463252640E1
1.157214859E0,1.125122452E1,-1.972567797E0,-5.049509430E1
1.177101526E0,1.354005623E1,-1.565030766E1,-5.182128143E1
1.196995484E0,1.583005714E1,-2.870755577E1,-5.274362946E1
1.216864182E0,1.576820374E1,-3.652149582E1,-4.670117188E1
1.236761890E0,9.978574753E0,-3.765673447E1,-3.626773834E1
1.256666890E0,5.614382267E0,-3.899106979E1,-2.711452484E1
1.276544390E0,8.233394623E0,-3.972323227E1,-2.216019249E1
1.296414598E0,7.302769661E0,-3.678327179E1,-1.893957138E1
1.316335484E0,4.067161560E0,-3.096780014E1,-1.340635586E1
1.336233609E0,2.612000465E0,-2.524449539E1,-9.957451820E0
1.356127619E0,2.089550018E0,-2.088247299E1,-7.671667099E0
1.376008817E0,8.854542971E-1,-1.712064362E1,-4.679589748E0
1.395876369E0,4.022325277E-1,-1.318038559E1,-2.552753210E0
1.415771942E0,1.675888896E0,-8.895153046E0,-1.727491379E0
1.435672463E0,2.094661474E0,-5.201498508E0,-7.408890724E-1
1.455562671E0,-2.424592972E-1,-2.919657469E0,1.318685532E0
1.475445901E0,-2.138611078E0,-1.536596775E0,1.801349163E0
1.495357359E0,-7.949016094E-1,4.623155594E-1,1.059961319E0
1.515221578E0,2.207981348E0,1.631884575E0,1.825119972E0
1.535159182E0,1.834623337E0,1.329938889E0,1.180328369E0
1.555005223E0,-1.256491899E0,2.264579773E0,-2.527117729E-1
1.574924651E0,-3.473567963E-1,3.451004982E0,3.681293964E0
1.594815588E0,-2.649426460E-1,2.863246918E0,4.644200802E0
1.614681682E0,-2.458069324E0,2.171477318E0,1.465659142E-1
1.634581057E0,-2.100667477E0,2.090610504E0,1.155648947E0
1.654467463E0,7.971799374E-2,1.756146431E0,4.548199654E0
1.674383817E0,7.203388214E-2,1.598742485E0,2.105483770E0
1.694282098E0,-8.919308186E-1,2.733065605E0,-1.018769264E0
1.714159338E0,-8.309035301E-1,3.844686508E0,1.242825031E0
1.734039494E0,-1.153323650E-1,3.746591568E0,2.313917637E0
1.753930848E0,-7.720854282E-1,3.344394684E0,2.996277809E-2
1.773812411E0,-2.372858286E0,3.342218399E0,-9.828858376E-1
1.793708401E0,-3.575751305E0,2.975553513E0,-9.434809685E-1
1.813619026E0,-3.551770687E0,2.807211876E0,2.123951912E-2
1.833499755E0,-3.061285973E0,2.295006752E0,-4.510474205E-2
1.853383921E0,-3.050529242E0,2.380399704E0,-5.756998062E-2
1.873252203E0,-3.250174046E0,2.670906067E0,4.220967293E-1
1.893186005E0,-3.057625294E0,2.221828461E0,5.490252972E-1
1.913053192E0,-2.728290558E0,1.570731163E0,4.525442123E-1
1.932959963E0,-2.043693066E0,7.882156372E-1,-3.891055584E-1
1.952824078E0,-1.337445974E0,8.272609711E-1,-1.010572076E0
1.972723817E0,-6.659457684E-1,8.137264252E-1,-1.448041677E0
1.992630171E0,-3.346827030E-1,4.202079773E-1,-1.734781623E0
2.012496890E0,-1.753051281E-1,-1.757755280E-1,-1.802635908E0
2.032395536E0,-1.617023945E-1,-1.126391888E0,-1.690379381E0
2.052312203E0,4.865503311E-2,-1.252841949E0,-1.391904473E0
2.072185171E0,4.677090645E-1,-9.245405197E-1,-1.335476041E0
2.092061057E0,7.368407249E-1,3.171148300E-1,-1.223816037E0
2.111944494E0,1.031365156E0,8.469619751E-1,-9.117034674E-1
2.131852463E0,1.144943237E0,7.430505753E-1,-3.693759441E-1
2.151712723E0,1.460882187E0,1.166824341E0,-1.741805077E-1
2.171602619E0,1.728068113E0,1.220400810E0,-2.035176754E-1
2.191501421E0,1.742596149E0,7.930345535E-1,-3.872752190E-2
2.211402463E0,1.557382107E0,1.380748749E-1,6.679503918E-1
2.231284963E0,8.306293488E-1,-3.556814194E-1,1.026468039E0
2.251216109E0,-2.458143234E-2,-5.541238785E-1,1.083387613E0
2.271081005E0,-7.498724461E-1,-3.071632385E-1,9.701912403E-1
2.290982880E0,-9.477200508E-1,-1.366310120E-1,6.484422684E-1
2.310841578E0,-5.607168674E-1,-1.107196808E-1,4.677848816E-1
2.330759442E0,-1.975126266E-1,-4.209899902E-2,2.532188892E-1
2.350656005E0,-8.940219879E-3,1.771259308E-2,1.277263165E-1
2.370552984E0,1.319441795E-1,3.539657593E-2,2.572731972E-1
2.390448192E0,2.682359219E-1,-4.029464722E-2,3.754043579E-1
2.410345588E0,3.259079456E-1,4.382133484E-2,4.593853951E-1
2.430219598E0,3.261909485E-1,2.498083115E-1,4.099888802E-1
2.450107828E0,4.873201847E-1,3.042020798E-1,4.925899506E-1
2.470006005E0,8.388268948E-1,1.987476349E-1,7.008247375E-1
2.489900484E0,9.602048397E-1,3.765773773E-2,8.027663231E-1
2.509814234E0,8.953199387E-1,-2.398595810E-1,9.398033619E-1
2.529679286E0,1.160028934E0,-5.858097076E-1,1.160171986E0
2.549559807E0,1.706769466E0,-1.051478386E0,1.226000786E0
2.569446057E0,1.941859007E0,-1.460898876E0,1.147937298E0
2.589325171E0,1.954809189E0,-1.527313232E0,9.344367981E-1
2.609219911E0,2.018238306E0,-1.355376720E0,6.170156002E-1
2.629141994E0,2.250164270E0,-1.447774887E0,3.593761921E-1
2.649033921E0,2.492472649E0,-1.771899223E0,2.912855148E-2
2.668916109E0,2.310005665E0,-1.817728996E0,-5.953814983E-1
2.688788557E0,1.753652096E0,-1.405548096E0,-1.134419918E0
2.708683088E0,1.114177465E0,-1.341848850E0,-1.654563546E0
2.728592463E0,-1.168749332E-1,-1.624682426E0,-1.545179486E0
2.748476890E0,-1.430447578E0,-1.569374561E0,-1.378954291E0
2.768382984E0,-1.196106195E0,-1.702390194E0,-1.927092671E0
2.788270432E0,-6.069324017E-1,-1.938371658E0,-2.018427610E0
2.808163401E0,-9.458725452E-1,-2.022576809E0,-1.292277694E0
2.828036161E0,-1.675565958E0,-2.191357613E0,-1.225240231E0
2.847927411E0,-3.070492744E-1,-2.469368458E0,-2.007122278E0
2.867812307E0,-2.580833435E-1,-2.030935287E0,-1.664300680E0
2.887705432E0,-1.161039352E0,-1.738663673E0,-1.192909122E0
2.907595744E0,-2.208604097E0,-1.831309319E0,-7.209993005E-1
2.927490744E0,-3.185332775E0,-2.011740685E0,-2.448193878E-1
2.947371421E0,-3.886238575E0,-3.237558365E0,4.683257937E-1
2.967277567E0,-4.401766777E0,-4.131295204E0,1.785948038E0
2.987180171E0,-5.268301010E0,-3.587570667E0,2.920944214E0
3.007033453E0,-6.076226711E0,-2.583555222E0,3.328568697E0
3.026930692E0,-7.027867794E0,-1.806231976E0,3.821390629E0
3.046838244E0,-8.065149307E0,-7.110104561E-1,4.648764610E0
3.066738088E0,-8.969351768E0,8.103981018E-1,4.475167751E0
3.086616890E0,-9.720581055E0,3.919718266E0,3.378462315E0
3.106506994E0,-1.131116581E1,1.088749981E1,5.636534691E-1
3.126409755E0,-1.048936653E1,1.567172623E1,-6.717083931E0
3.146267671E0,-3.891854286E0,1.870290756E1,-1.235514164E1
3.166213661E0,7.407365799E0,2.826014900E1,-1.659857178E1
3.186111369E0,1.175163460E1,4.312732697E1,-2.699745560E1
3.205948765E0,3.443652391E0,4.802277756E1,-4.429506683E1
3.225870171E0,5.380706787E-1,3.135481453E1,-6.045092010E1
3.245749755E0,9.347617149E0,5.365882397E0,-6.328188324E1
3.265643296E0,1.576535892E1,-8.305305481E0,-5.425767899E1
3.285544078E0,1.980858040E1,-1.279588890E1,-4.815372849E1
3.305401161E0,2.434910774E1,-2.139814377E1,-4.532402420E1
3.325325276E0,1.980699158E1,-2.686009598E1,-3.701294327E1
3.345215067E0,1.335478401E1,-3.118751717E1,-2.806949234E1
3.365109078E0,1.565819073E1,-3.462895966E1,-2.319540977E1
3.384959182E0,1.301777840E1,-3.467092133E1,-1.988425446E1
3.404876734E0,8.726816177E0,-2.945818710E1,-1.424533653E1
3.424785901E0,5.268415451E0,-2.309919357E1,-8.862268448E0
3.444662567E0,2.750263691E0,-1.804608727E1,-6.460077763E0
3.464529026E0,1.838439226E0,-1.401442719E1,-5.462184429E0
3.484452359E0,2.341057301E0,-1.055168533E1,-4.542899132E0
3.504329338E0,3.195580721E0,-7.620508671E0,-3.320461988E0
3.524262359E0,2.944333076E0,-4.988810062E0,-1.390688896E0
3.544148296E0,8.850372434E-1,-2.810049534E0,-3.036375046E-1
3.563997098E0,-1.610235095E0,-1.237323284E0,-5.164284706E-1
3.583910692E0,-1.631210446E0,8.092451096E-1,1.478543282E-1
3.603791578E0,4.296361804E-1,2.081157684E0,1.571529865E0
3.623663765E0,-7.037829757E-1,1.746031761E0,1.038238525E0
3.643547567E0,-3.468213797E0,2.375654221E0,-9.015574455E-1
3.663453401E0,-2.998738050E0,3.360295296E0,-3.136732578E-1
3.683359963E0,-1.368209958E0,3.899074554E0,1.670287609E0
3.703254338E0,-2.303616285E0,3.077272415E0,3.893153667E-1
3.723126213E0,-3.124737024E0,2.273148537E0,-1.136456251E0
3.743029338E0,-1.194764495E0,2.269609451E0,9.118793011E-1
3.762935588E0,-8.544949293E-1,1.656817436E0,6.442143917E-1
3.782812567E0,-2.237011671E0,1.395758629E0,-1.461790323E0
3.802696005E0,-3.086187363E0,1.567377090E0,-1.518579483E0
3.822600588E0,-2.503073692E0,1.904021263E0,1.220677137E0
3.842462151E0,-2.040937185E0,2.002072334E0,1.359342575E0
3.862382463E0,-1.813207984E0,2.033325195E0,-3.803572655E-1
3.882267567E0,-1.904318810E0,2.422517776E0,-4.992489815E-1
3.902200536E0,-1.553124309E0,2.394846916E0,1.029134274E0
3.922043296E0,-1.070979357E0,2.018380165E0,1.718107462E0
3.941926630E0,-1.058673024E0,1.604392052E0,9.476666451E-1
3.961812151E0,-1.535617948E0,1.693313599E0,6.699550152E-1
3.981697984E0,-1.882690787E0,2.091575623E0,3.426029682E-1
4.001607151E0,-2.029810429E0,2.114265442E0,1.786501408E-1
4.021487567E0,-1.827033162E0,1.419702530E0,4.732813835E-1
4.041359390E0,-1.796175838E0,3.758134842E-1,4.593076706E-1
4.061279130E0,-2.045946836E0,-1.976013184E-2,6.777954102E-1
4.081202619E0,-1.757469535E0,1.248455048E-1,8.104336262E-1
4.101029338E0,-1.056136012E0,6.471920013E-2,2.552165985E-1
4.120939338E0,-2.435185909E-1,-1.627531052E-1,-6.168150902E-2
4.140814703E0,5.034327507E-2,3.106975555E-2,-2.375261784E-1
4.160708817E0,-2.573254108E-1,4.014015198E-1,-3.171761036E-1
4.180613765E0,-3.571245670E-1,4.380502701E-1,-1.079361439E-1
4.200512359E0,-1.840634346E-1,3.930282593E-1,-3.932785988E-2
4.220404442E0,-8.993959427E-2,3.659429550E-1,-1.219174862E-1
4.240310015E0,-4.020142555E-2,5.772342682E-1,-7.359933853E-2
4.260205223E0,-6.231594086E-2,4.116849899E-1,1.416754723E-2
4.280049130E0,-3.298535347E-1,6.183719635E-2,2.740700245E-1
4.299954130E0,-3.554401398E-1,-1.425991058E-1,5.439579487E-1
4.319835380E0,-2.162606716E-1,-2.159404755E-2,3.830354214E-1
4.339724911E0,9.516930580E-2,4.303264618E-2,4.210209846E-2
4.359628192E0,3.284823895E-1,-1.149463654E-2,-3.861308098E-2
4.379524234E0,3.583157063E-1,7.913875580E-2,9.202408791E-2
4.399412567E0,1.749231815E-1,2.975101471E-1,5.358839035E-2
4.419314859E0,4.972457886E-3,1.788120270E-1,-2.288222313E-2
4.439212411E0,-4.667210579E-2,3.616333008E-3,8.893680573E-2
4.459080380E0,-1.325511932E-2,8.695507050E-2,1.504938602E-1
4.478993505E0,-6.028389931E-2,1.472120285E-1,-5.332708359E-3
4.498894807E0,-7.459545135E-2,-8.574867249E-2,3.760814667E-2
4.518786526E0,-4.353499413E-2,-1.934719086E-1,1.443550587E-1
4.538650276E0,5.251765251E-2,2.325057983E-2,4.408359528E-4
4.558535015E0,3.218579292E-2,2.173624039E-1,-1.650588512E-1
4.578437828E0,-9.109735489E-3,4.271602631E-2,-1.442515850E-1
4.598360796E0,-1.097848415E-1,-1.570806503E-1,-2.767705917E-2
4.618280848E0,-1.971147060E-1,-2.159252167E-1,3.412246704E-3
4.638113453E0,-1.542267799E-1,-1.350212097E-1,-7.245516777E-2
4.657994286E0,-5.515766144E-2,8.791637421E-2,-1.148850918E-1
4.677900796E0,-1.932287216E-2,1.024618149E-1,-9.079122543E-2
4.697805901E0,1.094846725E-1,-2.930545807E-2,4.888200760E-2
4.717667619E0,2.601342201E-1,-2.641963959E-2,1.071112156E-1
4.737569703E0,2.749221325E-1,-5.170822144E-3,5.835199356E-2
4.757453348E0,2.211384773E-1,-3.133869171E-2,1.361083984E-2
4.777342463E0,1.461493969E-1,-7.998180389E-2,-3.368830681E-2
4.797254442E0,1.264019012E-1,6.674766541E-3,-1.645565033E-2
4.817136890E0,5.893206596E-2,9.496974945E-2,-4.284381866E-3
4.837034338E0,3.436946869E-2,4.826641083E-2,4.582643509E-2
4.856918036E0,2.123308182E-2,-7.245063782E-2,1.085743904E-1
4.876801213E0,-6.072378159E-2,1.142311096E-2,1.225197315E-1
4.896673401E0,4.006385803E-3,1.418285370E-1,-3.307580948E-3
4.916592151E0,1.076402664E-1,1.652994156E-1,-3.849148750E-2
4.936464755E0,1.456806660E-1,1.153573990E-1,3.887391090E-2
4.956372359E0,7.058954239E-2,5.583763123E-2,9.470963478E-2
4.976262359E0,4.901051521E-2,-4.103183746E-2,1.253490448E-1
4.996154130E0,1.467657089E-2,-1.627063751E-2,1.443214417E-1
5.016062828E0,3.569412231E-2,2.479267120E-2,8.231639862E-2
5.035952984E0,-8.184909821E-4,1.327762604E-1,1.195623875E-1
5.055803765E0,1.940383911E-1,6.553173065E-2,3.843142986E-1
5.075719390E0,8.164525032E-1,-2.696971893E-1,1.008941650E0
5.095620171E0,1.653440237E0,-4.333734512E-1,1.416106462E0
5.115500744E0,2.162232161E0,-5.831413269E-1,1.129472494E0
5.135389338E0,1.994607687E0,-9.914455414E-1,6.589939594E-1
5.155273609E0,1.587339878E0,-1.974771976E0,1.363008022E-1
5.175210640E0,1.273791075E0,-3.377446651E0,-6.113471985E-1
5.195050796E0,8.553421497E-1,-4.929588318E0,-1.409965515E0
5.214976109E0,2.053806782E-1,-6.218019485E0,-2.302175045E0
5.234826838E0,-1.118386030E0,-6.847309113E0,-2.878495216E0
5.254741005E0,-3.090246677E0,-6.840218544E0,-2.549870253E0
5.274638609E0,-5.089643478E0,-6.870260239E0,-1.696189404E0
5.294533609E0,-6.665942669E0,-7.215859890E0,-8.012049198E-1
5.314401057E0,-7.052158356E0,-7.530781746E0,2.056608200E-1
5.334319234E0,-7.499630451E0,-7.581565857E0,1.506643176E0
5.354251890E0,-8.909240723E0,-6.946857452E0,2.982073069E0
5.374088661E0,-1.000364017E1,-5.265597343E0,3.954778671E0
5.393993817E0,-1.019433117E1,-2.724688292E0,4.405540943E0
5.413852411E0,-1.024267769E1,2.953408718E0,4.125743389E0
5.433764703E0,-1.025531101E1,1.038191700E1,2.498662472E0
5.453652307E0,-8.243698120E0,1.771034813E1,1.749013901E0
5.473546161E0,-1.007718682E0,2.831220627E1,-1.497472763E0
5.493457567E0,1.217304039E1,3.798327255E1,-2.377309418E1
5.513335276E0,1.369243240E1,3.690930557E1,-5.661309814E1
5.533239755E0,1.282034636E0,2.720327377E1,-6.884599304E1
5.553108869E0,-1.346828461E0,1.006200409E1,-6.889636993E1
5.572989703E0,8.511577606E0,-4.984691143E0,-6.594388580E1
5.592876682E0,1.765113068E1,-1.479519844E1,-5.514997482E1
5.612795380E0,1.982115173E1,-2.976784706E1,-4.713230896E1
5.632658661E0,1.340896511E1,-4.219880295E1,-3.857743073E1
5.652546786E0,1.743938923E0,-4.193659210E1,-2.799903679E1
5.672448244E0,2.849665880E0,-4.320522308E1,-2.130174255E1
5.692363661E0,7.981956959E0,-4.242553329E1,-1.844923782E1
5.712254546E0,6.608810425E0,-3.598489380E1,-1.312970066E1
5.732124651E0,1.784024358E0,-2.886948013E1,-8.113905907E0
5.752020953E0,-8.975018859E-1,-2.314068222E1,-6.403694153E0
5.771896578E0,-1.436482668E0,-1.898971939E1,-5.071787834E0
5.791802567E0,-8.307057023E-1,-1.517285538E1,-4.104718208E0
5.811684130E0,-1.128571272E0,-1.168867493E1,-2.932323456E0
5.831595067E0,-2.532685995E0,-7.837197304E0,-1.445832968E0
5.851455119E0,-1.378566027E0,-5.043114662E0,6.494927406E-1
5.871364651E0,1.824462712E-1,-3.383036613E0,1.798792839E0
5.891245588E0,-5.328813791E-1,-1.324850082E0,1.575015545E0
5.911228296E0,-9.490678310E-1,2.156557083E0,1.053577423E0
5.931021630E0,5.305700302E-1,3.020686150E0,2.278331757E0
5.950941421E0,3.600104451E-1,2.254493713E0,3.103489876E0
5.970804494E0,-1.432626247E0,2.881217003E0,1.450537682E0
5.990700953E0,-2.222899437E0,3.367296219E0,1.566111565E0
6.010581265E0,-2.320236444E0,1.833065033E0,3.602445602E0
6.030478244E0,-3.633896589E0,9.282245636E-1,3.440857410E0
6.050366473E0,-3.646148920E0,1.002453804E0,1.146784544E0
6.070277046E0,-2.611863136E0,5.391902924E-1,-9.401559830E-3
6.090141890E0,-1.734968424E0,3.692741394E-1,1.869368553E-1
6.110032411E0,-1.433504939E0,5.667762756E-1,-5.100612640E-1
6.129929703E0,-1.266926765E0,7.240200043E-1,-1.171435356E0
6.149828505E0,-7.705280781E-1,8.988218307E-1,8.068013191E-2
6.169708661E0,-4.963560104E-1,1.270588875E0,1.504013777E0
6.189595171E0,-7.857469320E-1,1.466696739E0,1.219899893E0
6.209496161E0,-1.024671435E0,1.514143944E0,6.310434341E-1
6.229398192E0,-1.124921441E0,1.687774658E0,6.521811485E-1
6.249308973E0,-1.108346462E0,1.713875771E0,7.305111885E-1
6.269193192E0,-1.098409295E0,1.526927948E0,7.606379986E-1
6.289078192E0,-1.240002871E0,1.624460220E0,7.755410671E-1
6.308955692E0,-1.334127069E0,1.520977974E0,1.086181641E0
6.328839703E0,-1.449557781E0,1.497203827E0,1.005684137E0
6.348769130E0,-1.598780036E0,1.352956772E0,3.792428970E-1
6.368652984E0,-1.631650686E0,1.166341782E0,-1.084947586E-2
6.388522619E0,-1.575171947E0,9.776315689E-1,-1.691515446E-1
6.408439651E0,-1.408509851E0,7.757663727E-1,-3.455328941E-2
6.428354182E0,-1.255430460E0,5.112075806E-1,5.640172958E-2
6.448253973E0,-1.179723144E0,2.309436798E-1,-7.708334923E-2
6.468072984E0,-1.199585915E0,1.717548370E-1,-3.106501102E-1
6.488000901E0,-1.207953095E0,1.631059647E-1,-3.887507915E-1
6.507882776E0,-9.656939507E-1,2.062788010E-1,-2.566666603E-1
6.527794442E0,-6.957522631E-1,2.505559921E-1,2.298831940E-3
6.547652776E0,-3.736829758E-1,1.694030762E-1,8.589792252E-2
6.567537255E0,-2.525665760E-1,1.609249115E-1,-1.335170269E-1
6.587448296E0,-3.056149483E-1,2.862768173E-1,-2.615382671E-1
6.607322098E0,-2.441012859E-1,3.153944016E-1,-2.019326687E-1
6.627223348E0,-1.703145504E-1,2.376499176E-1,-1.308810711E-1
6.647126421E0,-2.355623245E-1,2.008352280E-1,-1.671426296E-1
6.666992515E0,-3.254845142E-1,2.255611420E-1,-2.022995949E-1
6.686906161E0,-2.748150826E-1,1.914920807E-1,-1.827967167E-1
6.706802828E0,-1.234860420E-1,1.656808853E-1,-8.645176888E-2
6.726691421E0,-2.775335312E-2,2.550420761E-1,-4.049229622E-2
6.746587463E0,-7.970833778E-2,1.757478714E-1,-7.758450508E-2
6.766448453E0,-2.669723034E-1,1.066398621E-1,-8.943891525E-2
6.786354078E0,-4.490854740E-1,1.977357864E-1,-1.083664894E-1
6.806258973E0,-3.828568459E-1,2.440824509E-1,-1.778745651E-1
6.826152359E0,4.528641701E-2,6.699275970E-2,-1.974515915E-1
6.846014286E0,3.385519981E-1,4.853725433E-2,-5.253767967E-2
6.865941369E0,1.635088921E-1,1.687202454E-1,-1.108789444E-2
6.885827463E0,-7.938671112E-2,1.051311493E-1,-3.582286835E-2
6.905716994E0,-6.051087379E-2,6.161403656E-2,-3.814268112E-2
6.925587567E0,1.648044586E-2,7.367134094E-2,2.526330948E-2
6.945498505E0,1.635091305E-1,2.577781677E-2,1.274788380E-1
6.965394963E0,9.698939323E-2,-2.416038513E-2,1.629776955E-1
6.985261369E0,1.825571060E-1,-3.880214691E-2,1.684153080E-1
7.005162046E0,3.034002781E-1,-4.607200623E-2,3.527243137E-1
7.025052203E0,3.947629929E-1,-1.710166931E-1,7.359828949E-1
7.044949755E0,7.532444000E-1,-1.934614182E-1,9.695389271E-1
7.064839755E0,1.053696632E0,-4.593448639E-1,7.851297855E-1
7.084731942E0,8.118600845E-1,-6.912698746E-1,6.302685738E-1
7.104610119E0,4.347288609E-1,-8.808107376E-1,5.703818798E-1
7.124497619E0,1.285691261E-1,-1.338530064E0,4.814510345E-1
7.144379859E0,7.714319229E-2,-1.624823570E0,8.232617378E-2
7.164286890E0,2.698922157E-2,-1.666863441E0,-4.479730129E-1
7.184211578E0,-1.866641045E-1,-1.728621483E0,-8.297257423E-1
7.204065536E0,-2.306272984E-1,-2.024088860E0,-1.086012483E0
7.223973817E0,-1.572840214E-1,-2.357630253E0,-1.266636491E0
7.243869130E0,-3.962175846E-1,-2.623575687E0,-1.436634421E0
7.263760276E0,-8.004553318E-1,-3.151988506E0,-1.554218292E0
7.283634338E0,-1.239124775E0,-3.987782001E0,-1.641979098E0
7.303541838E0,-1.760889292E0,-5.040424824E0,-1.725993395E0
7.323422411E0,-2.545998573E0,-5.963917732E0,-1.709136963E0
7.343304078E0,-3.859631300E0,-7.112714767E0,-1.498857737E0
7.363228973E0,-5.173373222E0,-8.388225555E0,-1.036258936E0
7.383105067E0,-6.545509338E0,-9.031845093E0,3.494687676E-1
7.402987411E0,-7.738034725E0,-8.796944618E0,2.283315659E0
7.422890588E0,-8.590435982E0,-8.244125366E0,3.293667793E0
7.442749911E0,-9.248733521E0,-6.837253571E0,3.269242525E0
7.462634859E0,-1.064724159E1,-4.812126160E-1,3.790538549E0
7.482533140E0,-1.178512955E1,1.279438496E1,2.130034447E0
7.502455276E0,-8.891604424E0,2.040329742E1,-2.134984016E0
7.522363869E0,5.737327933E-1,3.137395477E1,-4.028498650E0
7.542230328E0,2.045550156E1,4.489004135E1,-8.979975700E0
7.562115067E0,1.721326256E1,4.311462784E1,-2.880910301E1
7.582007151E0,-2.600139141E0,2.789571762E1,-6.229154587E1
7.601902776E0,-6.919970989E0,3.219074965E0,-6.938355255E1
7.621797463E0,7.248761654E0,-1.974223709E1,-6.814704132E1
7.641670848E0,1.466823959E1,-2.031645966E1,-6.224581146E1
7.661576005E0,1.611134338E1,-2.334147263E1,-5.157138443E1
7.681428973E0,1.361909199E1,-4.034415436E1,-3.905130005E1
7.701341317E0,6.169126511E0,-4.838047028E1,-2.597296143E1
7.721254546E0,6.149614811E0,-4.736269760E1,-1.595051861E1
7.741233036E0,6.216832161E0,-4.566669464E1,-1.242790794E1
7.761029494E0,2.179363251E0,-3.938483047E1,-8.108160019E0
7.780934026E0,-3.383129597E0,-3.000890350E1,-4.992655754E0
7.800807723E0,-6.136561394E0,-2.311173439E1,-2.978195190E0
7.820717984E0,-4.995752811E0,-1.804423523E1,-1.859634995E0
7.840577046E0,-3.037055016E0,-1.488896751E1,-1.829201460E0
7.860482880E0,-2.127730846E-1,-1.192837620E1,-1.220565081E0
7.880402411E0,2.710971832E0,-8.779813766E0,5.787644386E-1
7.900283713E0,1.761856794E0,-6.470341206E0,6.797256470E-1
7.920176578E0,-1.072604656E-1,-3.857678413E0,-5.375366211E-1
7.940026265E0,1.716604948E0,-7.864313126E-1,-2.418246269E-1
7.959939442E0,2.129122019E0,8.273000717E-1,4.092693329E-1
7.979841734E0,-9.629361629E-1,8.851633072E-1,-3.087029457E-1
7.999721578E0,-2.930097818E0,2.109830856E0,-8.558547497E-1
8.019609911E0,-1.887761831E0,3.367866516E0,3.239996433E-1
8.039521473E0,-2.890438080E0,2.780997276E0,1.442317963E-1
8.059368036E0,-4.846934319E0,2.910739899E0,-7.083425522E-1
8.079279494E0,-3.795358181E0,2.726854324E0,1.575065851E0
8.099189859E0,-2.798504353E0,1.443660736E0,2.906876326E0
8.119044494E0,-3.819452286E0,8.994855881E-1,1.098256826E0
8.138946890E0,-5.062161446E0,1.215402603E0,7.962639332E-1
8.158833609E0,-4.350155830E0,1.298330307E0,3.271050692E0
8.178741734E0,-3.171470881E0,1.220438957E0,3.616888762E0
8.198615588E0,-1.601958632E0,1.117343903E0,1.598570108E0
8.218501369E0,-2.402775288E-1,1.360864639E0,2.553508282E-1
8.238415484E0,6.921467781E-1,1.804085732E0,1.629059315E-1
8.258293557E0,6.578536034E-1,1.986934662E0,1.533700228E-1
8.278201213E0,-4.362030029E-1,2.306202888E0,-2.344490290E-1
8.298077880E0,-1.495047688E0,2.199981689E0,-3.187453747E-1
8.317957255E0,-1.732283354E0,1.710716248E0,3.759042025E-1
8.337847880E0,-1.747712851E0,1.201394081E0,8.639661074E-1
8.357768192E0,-1.913224220E0,9.457550049E-1,8.658914566E-1
8.377653505E0,-1.968056083E0,9.091262817E-1,5.504207611E-1
8.397516057E0,-1.924484134E0,1.002125740E0,9.279775620E-2
8.417448140E0,-1.600644350E0,8.857679367E-1,-8.985877037E-2
8.437324338E0,-1.351450205E0,7.322664261E-1,-8.176541328E-2
8.457240328E0,-1.533729672E0,5.973405838E-1,-2.298090458E-1
8.477120484E0,-1.640406251E0,3.857507706E-1,-4.316967726E-1
8.496984807E0,-1.664737701E0,7.771778107E-2,-2.297346592E-1
8.516902671E0,-1.576571226E0,-2.129335403E-1,2.270703316E-1
8.536791734E0,-1.076217532E0,-2.698898315E-2,3.454649448E-1
8.556655953E0,-6.696705818E-1,3.760776520E-1,-2.115330696E-1
8.576559807E0,-2.939941883E-1,4.694128036E-1,-7.058359385E-1
8.596438921E0,2.046852112E-1,4.916915894E-1,-6.542034149E-1
8.616326890E0,3.262946606E-1,4.084930420E-1,-5.005171299E-1
8.636227411E0,7.184815407E-2,2.794904709E-1,-4.348700047E-1
8.656117932E0,-8.058285713E-2,1.322402954E-1,-2.819728851E-1
8.676031109E0,-2.939907312E-1,-6.483364105E-2,-5.729508400E-2
8.695913869E0,-1.552258730E-1,-4.823684692E-3,1.861193180E-1
8.715794390E0,-1.151258945E-1,1.408967972E-1,2.211618423E-2
8.735664807E0,-8.659994602E-2,1.242570877E-1,-2.411704063E-1
8.755574703E0,-7.045817375E-2,-1.831722260E-2,-2.321524620E-1
8.775470015E0,-2.075955868E-1,-5.087375641E-2,-5.945992470E-2
8.795346682E0,-2.223227024E-1,5.276679993E-2,-7.259035110E-2
8.815268921E0,-6.485557556E-2,1.887321472E-1,-1.061885357E-1
8.835160067E0,1.741240025E-1,1.402845383E-1,-1.068928242E-1
8.855048088E0,3.412158489E-1,7.806587219E-2,-1.757996082E-1
8.874940692E0,2.542946339E-1,1.284637451E-1,-2.967298031E-1
8.894830171E0,-9.506940842E-3,1.472425461E-1,-2.257642746E-1
8.914693557E0,-1.986663342E-1,3.048419952E-2,-3.463435173E-2
8.934605171E0,-2.172849178E-1,8.773422241E-2,1.568157673E-1
8.954482932E0,-2.179379463E-1,2.543029785E-1,1.262040138E-1
8.974389651E0,-2.139487267E-1,3.308668137E-1,3.712177277E-3
8.994306890E0,-1.698136330E-2,3.250102997E-1,2.336161137E-1
9.014186734E0,2.820210457E-1,4.593296051E-1,6.273899078E-1
9.034042515E0,7.077276707E-1,4.626235962E-1,6.025559902E-1
9.053950536E0,1.031079769E0,3.812694550E-1,6.712191105E-1
9.073851630E0,1.391373396E0,3.193187714E-1,1.025928259E0
9.093728921E0,1.655364990E0,2.059793472E-1,1.144231081E0
9.113630380E0,1.800046444E0,-2.433452606E-1,1.030019522E0
9.133507151E0,1.926958084E0,-9.725294113E-1,6.710631847E-1
9.153411838E0,1.921091795E0,-1.452975273E0,9.467697144E-2
9.173277515E0,1.624848127E0,-1.628872871E0,-5.526199341E-1
9.193210692E0,1.208085060E0,-1.572481155E0,-1.173183203E0
9.213092359E0,7.184560299E-1,-1.902634621E0,-1.552690029E0
9.232979546E0,-8.546638489E-2,-2.007760048E0,-1.886070728E0
9.252871421E0,-9.727082253E-1,-2.025007248E0,-2.503117085E0
9.272752255E0,-3.118717670E-1,-2.715937138E0,-3.394456863E0
9.292653401E0,2.289428711E-1,-3.671612263E0,-3.821304321E0
9.312531421E0,-1.529674292E0,-4.336015224E0,-3.170065880E0
9.332436473E0,-4.873113632E0,-4.895029545E0,-2.272571802E0
9.352330901E0,-7.755988121E0,-4.742976189E0,-1.645355940E0
9.372238140E0,-9.460439682E0,-5.132390499E0,-1.343516827E0
9.392102619E0,-1.157046509E1,-6.516161919E0,-1.329908371E0
9.412000848E0,-1.521194077E1,-5.564651966E0,-6.070196033E-1
9.431858973E0,-1.871884727E1,-3.553846359E0,-8.130398393E-2
9.451785380E0,-2.027848053E1,-1.504518986E0,-2.233309746E-1
9.471660692E0,-2.127487373E1,2.893179417E0,-2.986929893E0
9.491547567E0,-1.870909119E1,6.963813782E0,-8.066253662E0
9.511426265E0,-7.237335682E0,1.201163292E1,-8.028581619E0
9.531325015E0,9.965768814E0,3.296477890E1,3.801239967E0
9.551238192E0,1.304761791E1,4.885931396E1,-6.329483986E0
9.571104807E0,-7.200758457E-1,4.190101242E1,-4.447998810E1
9.591010692E0,6.494104862E0,2.484471130E1,-6.530643463E1
9.610881057E0,2.489831734E1,9.765014648E0,-6.958767700E1
9.630796942E0,3.358405304E1,5.509696007E-1,-6.826103210E1
9.650671526E0,2.836131096E1,-1.061369514E1,-5.212314224E1
9.670559078E0,1.867416000E1,-2.483411598E1,-3.332310867E1
9.690454494E0,8.188136101E0,-3.332084274E1,-2.271690750E1
9.710378557E0,6.859329224E0,-3.678256607E1,-1.661371994E1
9.730289442E0,1.481367397E1,-3.611741638E1,-1.599519539E1
9.750164234E0,1.337205505E1,-3.454679489E1,-1.687246704E1
9.770043401E0,7.240937233E0,-2.937022400E1,-1.289981461E1
9.789905171E0,2.674246311E0,-2.413290405E1,-8.479656219E0
9.809810067E0,1.249824286E0,-1.993564987E1,-5.897000313E0
9.829709546E0,1.476654768E0,-1.543146324E1,-4.445103645E0
9.849608557E0,2.038358927E0,-1.166415977E1,-3.997824669E0
9.869494026E0,1.923320055E0,-8.567850113E0,-2.916753769E0
9.889353244E0,5.763869286E-1,-5.374858379E0,-7.655403614E-1
9.909250119E0,-4.270309210E-1,-3.067301750E0,-9.167072773E-1
9.929178453E0,-9.752362967E-1,-1.015876770E0,-2.448330879E0
9.949050328E0,-5.972505808E-1,1.235381126E0,-1.344640732E0
9.968938140E0,-4.228536487E-1,2.680088997E0,2.135072470E0
9.988819078E0,-2.070986271E0,2.040301323E0,1.353394508E0
1.000873241E1,-3.158382893E0,2.347200394E0,-2.521226406E-1
1.002859304E1,-1.249420166E0,3.382357597E0,1.588449001E0
1.004850142E1,2.461538911E-1,3.019168854E0,2.578563929E0
1.006837929E1,-3.315179348E-1,2.301218033E0,1.336338997E0
1.008831429E1,-1.450639725E0,2.853968620E0,7.159731388E-1
1.010818340E1,-7.834922075E-1,3.262660980E0,2.024377346E0
1.012807033E1,1.707876921E-1,2.593011856E0,2.185999870E0
1.014795538E1,-8.075861335E-1,2.821140289E0,5.640347004E-1
1.016783408E1,-2.322700500E0,2.735713005E0,-9.001255035E-2
1.018772262E1,-1.904437900E0,2.117156029E0,1.707288504E0
1.020763309E1,-7.783553600E-1,1.533488274E0,1.908747673E0
1.022750606E1,-7.138643265E-1,1.630849838E0,5.082528591E-1
1.024738538E1,-1.502205372E0,1.168293953E0,2.997922897E-2
1.026730476E1,-2.721740961E0,1.472949982E-1,7.179031372E-1
1.028719226E1,-2.995131493E0,-1.330614090E-1,1.163192272E0
1.030708918E1,-2.178064585E0,3.000469208E-1,-4.456236362E-1
1.032696241E1,-1.495499492E0,5.496501923E-1,-2.037931204E0
1.034685793E1,-1.648893237E0,5.530796051E-1,-2.133882999E0
1.036677173E1,-2.201620340E0,6.616125107E-1,-1.418426156E0
1.038665257E1,-2.511118889E0,9.693450928E-1,-3.613636494E-1
1.040656121E1,-2.293335199E0,1.133372307E0,-2.650358677E-1
1.042644543E1,-2.204074621E0,1.037539482E0,-2.920489311E-1
1.044631939E1,-2.268061876E0,1.082947731E0,3.615212440E-2
1.046623533E1,-2.330054760E0,1.350324631E0,1.773023605E-1
1.048612981E1,-2.067228556E0,1.276419640E0,5.980246067E-1
1.050599564E1,-1.570763826E0,1.017479897E0,8.860504627E-1
1.052588304E1,-1.299039602E0,1.316042900E0,9.547507763E-1
1.054579876E1,-1.219572544E0,1.704524040E0,7.471385002E-1
1.056567851E1,-8.744186163E-1,1.468947411E0,2.779462337E-1
1.058556903E1,-5.444289446E-1,7.830076218E-1,1.296341419E-1
1.060545095E1,-4.134430885E-1,2.166557312E-1,2.418162823E-1
1.062532689E1,-2.746930122E-1,1.762580872E-2,-2.110660076E-1
1.064524481E1,-3.711948395E-1,2.037687302E-1,-4.902453423E-1
1.066514236E1,-5.972995758E-1,6.139087677E-2,-2.927403450E-1
1.068503507E1,-4.763150215E-1,-2.355146408E-1,-2.952497005E-1
1.070493226E1,-7.746624947E-2,-2.029466629E-1,-3.673806190E-1
1.072480491E1,3.009018898E-1,-9.652805328E-2,-5.712156296E-1
1.074469788E1,4.999516010E-1,-1.288738251E-1,-6.266045570E-1
1.076458626E1,2.622876167E-1,1.535415649E-4,-4.380016327E-1
1.078447455E1,9.536981583E-3,1.936159134E-1,-4.822556973E-1
1.080439460E1,5.722260475E-2,1.933660507E-1,-4.235994816E-1
1.082425642E1,4.999947548E-2,4.777622223E-2,-8.096003532E-2
1.084414574E1,-5.995988846E-2,3.657341003E-2,-1.682233810E-2
1.086405335E1,4.818916321E-3,3.036155701E-1,-1.974561214E-1
1.088393111E1,6.326556206E-2,3.256311417E-1,-1.937353611E-1
1.090381981E1,2.873322964E-1,9.099578857E-2,-3.190898895E-2
1.092371679E1,2.389917374E-1,7.784748077E-2,-1.475453377E-2
1.094361684E1,1.162455082E-1,2.547492981E-1,-7.493925095E-2
1.096350189E1,5.044722557E-2,2.519130707E-1,-5.748438835E-2
1.098338356E1,-3.634214401E-3,-1.197814941E-3,1.401245594E-1
1.100326845E1,1.803662777E-1,-4.566192627E-3,1.794817448E-1
1.102316330E1,2.701530457E-1,2.445497513E-1,1.859250069E-1
1.104305793E1,4.304366112E-1,3.849573135E-1,2.830483913E-1
1.106293866E1,1.064555407E0,2.970790863E-1,5.410659313E-1
1.108286184E1,1.670247078E0,3.489446640E-1,7.100124359E-1
1.110275361E1,2.095802784E0,3.194475174E-1,6.516101360E-1
1.112263715E1,2.335072041E0,4.404544830E-2,5.249259472E-1
1.114251970E1,2.381317854E0,-4.304313660E-1,3.465030193E-1
1.116244574E1,2.101622820E0,-8.546347618E-1,6.409478188E-2
1.118228449E1,1.634881973E0,-1.256925583E0,-4.613754749E-1
1.120222804E1,1.471528530E0,-1.693849564E0,-1.211362362E0
1.122205892E1,1.118780613E0,-2.057277679E0,-1.909626961E0
1.124195663E1,3.585643768E-1,-2.847305298E0,-2.520221949E0
1.126188538E1,-1.317237854E0,-3.462405205E0,-2.524489403E0
1.128175481E1,-3.427094460E0,-4.018931389E0,-2.347137928E0
1.130165246E1,-5.274433136E0,-4.697309494E0,-2.503050804E0
1.132154226E1,-6.513980389E0,-5.621027470E0,-2.869127035E0
1.134142981E1,-7.925615311E0,-6.535354137E0,-2.508947849E0
1.136132788E1,-9.593670845E0,-7.623079300E0,-1.195750594E0
1.138123371E1,-1.224631500E1,-8.300113678E0,-7.212618589E-1
1.140108194E1,-1.499876595E1,-6.394939899E0,-5.006236434E-1
1.142099413E1,-1.762999153E1,-4.373308182E0,-4.991906285E-1
1.144089913E1,-1.962716675E1,-1.280309677E0,-8.353221416E-1
1.146078371E1,-2.184307671E1,6.517685890E0,-2.266912937E0
1.148067850E1,-2.049793625E1,1.722572327E1,-5.479647160E0
1.150054668E1,-9.984271049E0,2.240365601E1,-8.240776062E0
1.152048798E1,9.864390373E0,3.992801666E1,-9.720020294E0
1.154033647E1,1.816083717E1,4.911477661E1,-3.248006058E1
1.156023434E1,5.940795898E0,4.266647339E1,-6.426119232E1
1.158014819E1,-1.127126932E0,2.762572861E1,-6.905958557E1
1.160002408E1,9.735942841E0,4.805053711E0,-6.407055664E1
1.161993944E1,1.981599426E1,-1.171515656E1,-5.334461594E1
1.163980319E1,2.067007256E1,-2.047297668E1,-4.439651489E1
1.165968564E1,1.982772827E1,-2.929721451E1,-3.661913681E1
1.167957324E1,1.207697487E1,-3.981418610E1,-3.024138260E1
1.169948116E1,6.266849041E0,-4.595834732E1,-2.289546967E1
1.171935439E1,5.703958035E0,-4.255117798E1,-1.525575924E1
1.173924179E1,3.383545399E0,-3.737112427E1,-1.244583035E1
1.175914199E1,1.319759369E0,-2.921341896E1,-9.263865471E0
1.177904830E1,1.290469885E0,-2.221883392E1,-4.973933220E0
1.179891887E1,2.338760138E0,-1.812542915E1,-3.110064983E0
1.181880137E1,1.988548398E0,-1.448200226E1,-2.984583378E0
1.183870715E1,1.452166796E0,-9.166269302E0,-2.279983044E0
1.185861361E1,6.285511851E-1,-2.631171703E0,-5.670459270E-1
1.187847876E1,-1.184458971E0,7.516479492E-1,1.298375845E0
1.189838444E1,-3.929657936E0,7.061519623E-1,1.724162340E0
1.191829304E1,-3.300354004E0,2.688806534E0,1.805578232E0
1.193819658E1,9.730044007E-1,5.009693146E0,3.746881485E0
1.195803705E1,3.265678883E-1,4.991166115E0,3.604689360E0
1.197794918E1,-3.413388014E0,4.591249466E0,2.191978216E0
1.199785569E1,-1.553041220E0,4.242187500E0,3.720869064E0
1.201771720E1,2.909866571E-1,2.881376266E0,3.361802101E0
1.203762705E1,-1.448447108E0,2.027884483E0,8.744561672E-1
1.205747939E1,-3.250578165E0,1.756443977E0,1.357585669E0
1.207739429E1,-1.884325624E0,6.901950836E-1,4.381247520E0
1.209727397E1,-1.864196897E0,3.462438583E-1,3.468795061E0
1.211717580E1,-1.962140441E0,6.931276321E-1,3.209309578E-1
1.213704814E1,-1.870424509E0,1.083862305E0,-1.222787499E0
1.215695767E1,-1.733997822E0,1.332603455E0,-1.714191437E-1
1.217686778E1,-1.193162918E0,9.158315659E-1,7.792282104E-2
1.219672564E1,-1.239112377E0,1.359617233E0,-1.095035911E0
1.221662564E1,-1.859899521E0,2.255001068E0,-1.433846593E0
1.223649653E1,-2.151122808E0,2.108246803E0,-4.699323177E-1
1.225639684E1,-2.064537525E0,1.923760414E0,5.242059231E-1
1.227631970E1,-2.166366816E0,1.528978348E0,5.191643238E-1
1.229619351E1,-2.268032551E0,1.421794891E0,4.422330856E-1
1.231608507E1,-2.409361362E0,1.156002998E0,3.165721893E-1
1.233595668E1,-2.683452845E0,8.873252869E-1,1.636791229E-2
1.235587324E1,-2.689990282E0,7.657308578E-1,-1.654400826E-1
1.237574819E1,-2.234320164E0,6.862545013E-1,-3.917877674E-1
1.239566252E1,-1.896993995E0,7.228097916E-1,-6.498303413E-1
1.241552340E1,-1.564452648E0,7.058076859E-1,-5.901374817E-1
1.243545361E1,-9.854032993E-1,6.462373734E-1,-2.931838036E-1
1.245534647E1,-7.521258593E-1,5.543794632E-1,-2.103431225E-1
1.247523574E1,-8.130756617E-1,3.792734146E-1,-1.837430000E-1
1.249512205E1,-8.815060854E-1,8.972072601E-2,-1.021718979E-2
1.251498876E1,-5.226025581E-1,2.809524536E-2,-4.558420181E-2
1.253490699E1,-3.964829445E-2,2.127399445E-1,-2.208235264E-1
1.255477449E1,3.850171566E-1,2.360420227E-1,-2.358648777E-1
1.257465694E1,6.026575565E-1,4.736900330E-2,-1.378531456E-1
1.259457309E1,6.549072266E-1,-6.569099426E-2,-1.406431198E-2
1.261444408E1,3.968927860E-1,2.413311005E-1,3.796982765E-2
1.263435913E1,1.601183414E-1,3.051748276E-1,1.241922379E-3
1.265424423E1,1.113693714E-1,6.201934814E-2,9.511995316E-2
1.267413444E1,-1.192522049E-2,-1.117067337E-1,8.539724350E-2
1.269400377E1,-1.413486004E-1,5.168628693E-2,-5.354309082E-2
1.271393319E1,-2.145433426E-1,3.010854721E-1,-2.675328255E-1
1.273380408E1,-2.464485168E-2,1.832618713E-1,-2.991409302E-1
1.275371111E1,9.713387489E-2,1.383686066E-2,-2.451229095E-1
1.277359002E1,1.515834332E-1,1.499691010E-1,-2.920832634E-1
1.279349288E1,1.751334667E-1,4.615926743E-1,-4.549064636E-1
1.281335981E1,1.527483463E-1,4.191303253E-1,-2.452507019E-1
1.283325366E1,-3.496241570E-2,6.065273285E-2,2.189755440E-2
1.285316278E1,-2.476134300E-1,-6.515693665E-2,1.891753674E-1
1.287306215E1,-3.620436192E-1,2.716922760E-2,2.492556572E-1
1.289295496E1,-7.313823700E-2,1.240062714E-2,7.913994789E-2
1.291284819E1,4.016001225E-1,-9.398269653E-2,-1.459581852E-1
1.293269845E1,6.493344307E-1,-1.527814865E-1,-2.284119129E-1
1.295259080E1,6.699519157E-1,-5.543041229E-2,-1.565966606E-1
1.297249804E1,6.783769131E-1,6.459236145E-2,1.042559147E-1
1.299238804E1,7.763943672E-1,2.085447311E-1,2.773919106E-1
1.301231918E1,1.396653891E0,-1.435527802E-1,4.380893707E-1
1.303221012E1,2.074765205E0,-5.050573349E-1,8.062021732E-1
1.305207699E1,2.064103842E0,-6.775803566E-1,8.837952614E-1
1.307194918E1,1.828155041E0,-9.925756454E-1,5.649616718E-1
1.309185064E1,1.700652838E0,-1.720696449E0,-1.937212944E-1
1.311172897E1,1.289346933E0,-2.907176018E0,-1.072017908E0
1.313163371E1,7.085402012E-1,-3.972784519E0,-2.053370953E0
1.315151762E1,3.093576431E-2,-4.829126358E0,-3.173332214E0
1.317142397E1,-6.829295158E-1,-5.472558022E0,-4.015334129E0
1.319130965E1,-1.724894524E0,-5.640738487E0,-4.326304913E0
1.321125653E1,-2.916186571E0,-5.421107292E0,-4.008072376E0
1.323109699E1,-4.789020538E0,-5.193342686E0,-3.428272486E0
1.325096017E1,-7.019700527E0,-5.108986855E0,-2.605476379E0
1.327086439E1,-9.719768524E0,-3.982536793E0,-1.824624062E0
1.329073793E1,-1.370988083E1,-8.628430367E-1,-7.078201771E-1
1.331064918E1,-1.585887718E1,1.643073082E0,3.204726696E0
1.333053236E1,-1.593207932E1,3.498073101E0,1.512026072E0
1.335043986E1,-1.489066887E1,6.861793518E0,-4.370471954E0
1.337034106E1,-1.205490875E1,1.128388882E1,-5.452528954E0
1.339023559E1,-7.593505859E0,1.527599716E1,-5.435480118E0
1.341010949E1,-1.225800753E0,1.965551186E1,-8.801737785E0
1.342998142E1,9.526412010E0,2.762994003E1,-2.375220108E1
1.344989340E1,1.608174896E1,3.763218689E1,-4.079550934E1
1.346975272E1,8.776830673E0,4.268417358E1,-5.311412811E1
1.348967319E1,1.009497833E1,2.832875443E1,-6.766887665E1
1.350956048E1,2.006938171E1,3.496870279E0,-6.408270264E1
1.352944272E1,2.700889015E1,-8.692705154E0,-5.004698181E1
1.354933199E1,3.086194801E1,-1.691139030E1,-4.532260895E1
1.356922627E1,3.098804092E1,-2.800448036E1,-4.105135345E1
1.358915986E1,1.924254417E1,-3.407579041E1,-3.237564087E1
1.360900564E1,8.859737396E0,-3.513759613E1,-2.110253716E1
1.362889002E1,7.534231186E0,-3.329787064E1,-1.328748322E1
1.364878861E1,8.977111816E0,-3.096800041E1,-1.411712551E1
1.366869288E1,7.371006489E0,-2.629498672E1,-1.164259148E1
1.368855970E1,4.060495377E0,-2.002832413E1,-7.415234566E0
1.370847673E1,2.284930944E0,-1.528387642E1,-5.999368668E0
1.372839491E1,2.019579887E0,-1.186169815E1,-5.629155159E0
1.374829460E1,1.401921272E0,-8.725996971E0,-4.147642136E0
1.376817319E1,1.888282061E0,-6.156846523E0,-2.440406799E0
1.378801533E1,1.959811926E0,-3.970475197E0,-1.061609507E0
1.380791564E1,-4.672341943E-1,-1.707044601E0,-5.150222778E-2
1.382782715E1,-2.505079508E0,2.487602234E-1,9.374322891E-1
1.384771632E1,-1.577690125E0,9.586725235E-1,2.310714245E0
1.386760694E1,-7.113158703E-3,1.049352646E0,1.736285686E0
1.388747626E1,-8.650176525E-1,1.483007431E0,-2.397906780E-1
1.390737939E1,-2.048578024E0,2.275705338E0,6.356430054E-2
1.392726486E1,-6.373361349E-1,3.027968407E0,3.132065535E0
1.394717382E1,-2.705071270E-1,2.292476654E0,1.740844488E0
1.396704606E1,-1.646701574E0,2.106748581E0,-1.656518102E0
1.398694241E1,-2.643081665E0,2.283102989E0,-1.589892626E0
1.400684976E1,-1.534463882E0,1.719061852E0,1.302370071E0
1.402671158E1,-9.831147194E-1,9.642295837E-1,7.401885986E-1
1.404663382E1,-1.495826960E0,1.608911514E0,-9.343312979E-1
1.406650543E1,-1.825092793E0,2.169275284E0,-2.130696774E-1
1.408638215E1,-1.403096199E0,2.120745659E0,1.070792198E0
1.410630486E1,-1.150429249E0,2.045260429E0,9.656591415E-1
1.412619293E1,-1.413392305E0,2.207048416E0,6.073186398E-1
1.414608595E1,-1.802966952E0,1.853123665E0,3.220772743E-1
1.416594158E1,-2.267956972E0,1.546536446E0,4.454834461E-1
1.418585684E1,-2.132483959E0,1.017638206E0,7.512195110E-1
1.420572465E1,-1.917594194E0,8.110380173E-1,1.216498852E0
1.422561298E1,-2.092357874E0,9.264640808E-1,8.439004421E-1
1.424552017E1,-2.197219133E0,1.150093079E0,-1.606752872E-1
1.426539939E1,-2.178705931E0,1.372755051E0,-6.452000141E-1
1.428530976E1,-2.180010557E0,1.188344955E0,-4.976966381E-1
1.430520080E1,-1.952309370E0,1.141762733E0,-1.359848976E-1
1.432508002E1,-1.960472107E0,1.179471970E0,1.148343086E-1
1.434496444E1,-2.090936422E0,1.035025597E0,2.698106766E-1
1.436488142E1,-1.955443025E0,9.313535690E-1,3.007755280E-1
1.438476465E1,-1.400660753E0,9.038906097E-1,1.668264866E-1
1.440467262E1,-7.801468372E-1,1.059000969E0,-2.254104614E-2
1.442454746E1,-4.681310654E-1,7.262163162E-1,-1.742141247E-1
1.444445048E1,-5.114660263E-1,2.344017029E-1,-9.707045555E-2
1.446437080E1,-7.327299118E-1,3.067579269E-1,2.581810951E-2
1.448425085E1,-7.344095707E-1,4.759378433E-1,-1.815831661E-1
1.450412496E1,-4.352037907E-1,4.616823196E-1,-2.553532124E-1
1.452401616E1,-3.219087124E-1,2.178430557E-1,-1.242568493E-1
1.454388934E1,-5.449974537E-1,1.742248535E-1,-3.515076637E-2
1.456378236E1,-5.374093056E-1,2.725667953E-1,-1.783928871E-1
1.458369892E1,-1.694841385E-1,1.904363632E-1,-2.363007069E-1
1.460357892E1,2.263979912E-1,1.765441895E-2,-2.508251667E-1
1.462346798E1,4.379656315E-1,8.950614929E-2,-2.915573120E-1
1.464335069E1,3.144705296E-1,2.416038513E-2,-3.615195751E-1
1.466324627E1,2.590520382E-1,-5.201053619E-2,-2.081453800E-1
1.468313215E1,5.702893734E-1,9.588336945E-2,-1.540546417E-1
1.470301616E1,7.252359390E-1,4.879951477E-3,-2.415900230E-1
1.472292934E1,4.762220383E-1,-7.169723511E-2,-1.552205086E-1
1.474281257E1,2.261772156E-1,-1.677141190E-1,-6.291890144E-2
1.476271069E1,1.304888725E-1,-5.276966095E-2,2.157807350E-2
1.478259429E1,1.711840630E-1,-7.960224152E-2,-6.718206406E-2
1.480248158E1,9.253168106E-2,-1.700582504E-1,-3.200769424E-2
1.482237642E1,-1.316576004E-1,-3.039774895E-1,7.164454460E-2
1.484225798E1,-9.891891479E-2,-3.342595100E-1,-4.051280022E-2
1.486214731E1,3.571557999E-1,-3.055562973E-1,-3.440189362E-1
1.488206226E1,6.521801949E-1,-3.222966194E-1,-2.905762196E-1
1.490195033E1,5.896029472E-1,-4.704260826E-1,-1.442434788E-1
1.492183548E1,4.855637550E-1,-4.540858269E-1,-1.018414497E-1
1.494173736E1,4.376993179E-1,-4.498100281E-1,-2.319335938E-2
1.496161486E1,3.950805664E-1,-4.110174179E-1,-7.305741310E-2
1.498151632E1,2.699103355E-1,-3.815617561E-1,-5.487990379E-2
1.500137543E1,2.196063995E-1,-4.087681770E-1,-1.090660095E-1
1.502128892E1,3.832387924E-1,-4.078431129E-1,-2.901809216E-1
1.504121543E1,5.006742477E-1,-5.061392784E-1,-2.455532551E-1
1.506107371E1,3.543896675E-1,-6.656227112E-1,-2.197289467E-2
1.508094470E1,-6.937456131E-2,-5.547475815E-1,-5.950164795E-2
1.510085272E1,-2.855262756E-1,-4.752321243E-1,-3.826205730E-1
1.512077835E1,-6.996650696E-1,-7.969632149E-1,-4.760825634E-1
1.514064600E1,-1.692188025E0,-1.337512493E0,-3.412671089E-1
1.516052022E1,-3.446166039E0,-1.851699352E0,2.407612801E-1
1.518043632E1,-4.798738956E0,-2.741965771E0,1.904726028E-3
1.520032611E1,-4.687347889E0,-4.261448860E0,-1.671498537E0
1.522026798E1,-4.588003159E0,-5.843868256E0,-2.454421043E0
1.524009116E1,-5.722064972E0,-6.592983246E0,-1.296119452E0
1.525999246E1,-6.287703514E0,-6.896803856E0,1.997836530E-1
1.527986022E1,-6.301125050E0,-6.743959904E0,1.186037540E0
1.529975970E1,-5.778529167E0,-5.956884384E0,2.342159033E0
1.531967028E1,-5.358430862E0,-5.309965611E0,3.975313425E0
1.533953069E1,-5.919780731E0,-4.579118729E0,5.553925991E0
1.535945319E1,-7.405115128E0,-2.943109274E0,6.416848183E0
1.537931210E1,-8.514095306E0,1.715018272E0,6.250458241E0
1.539924356E1,-9.872641563E0,1.131914330E1,5.053248405E0
1.541910757E1,-9.406887054E0,2.125888634E1,2.794763565E0
1.543898028E1,-2.351322412E0,2.977559662E1,4.102239609E-1
1.545889903E1,1.529648018E1,3.694968033E1,-1.376122379E1
1.547877460E1,1.858222771E1,3.782143402E1,-4.265118408E1
1.549867272E1,-6.523942947E-2,2.781665993E1,-6.674311829E1
1.551855272E1,-8.320549011E0,7.361721992E-1,-6.994608307E1
1.553846798E1,2.100424767E0,-2.932128716E1,-6.862570953E1
1.555836632E1,1.230801392E1,-2.836838531E1,-5.940950775E1
1.557825434E1,1.739651871E1,-2.741874123E1,-5.092207336E1
1.559816080E1,1.909202576E1,-4.273851776E1,-4.142951202E1
1.561803840E1,1.027328110E1,-5.052005768E1,-2.906429482E1
1.563789574E1,8.152172089E0,-4.768312836E1,-1.651329994E1
1.565778699E1,1.133388519E1,-4.410791016E1,-1.122537422E1
1.567770101E1,1.096447563E1,-3.949651337E1,-9.146435738E0
1.569758486E1,7.414073467E0,-3.386853790E1,-5.734165668E0
1.571748366E1,1.841900945E0,-2.978392792E1,-4.282543659E0
1.573734085E1,-7.095919251E-1,-2.345150566E1,-3.903826237E0
1.575727309E1,-3.662446737E-1,-1.770999908E1,-1.985575438E0
1.577721913E1,-8.118398786E-1,-1.385018158E1,-7.511723042E-1
1.579703569E1,-2.599125385E0,-1.059526825E1,-3.097033501E-1
1.581694767E1,-2.790445089E0,-7.781541348E0,1.508697510E0
1.583680090E1,-1.215089440E0,-5.888806820E0,2.771764755E0
1.585672476E1,-1.529386163E0,-4.173849106E0,9.760293961E-1
1.587662809E1,-3.141155481E0,-1.046175003E0,-5.253586769E-1
1.589648397E1,-1.837539911E0,2.717551231E0,1.529945612E0
1.591636699E1,-2.162180245E-1,4.128232956E0,3.534478426E0
1.593627361E1,-1.636946559E0,3.933559418E0,1.033161163E0
1.595616361E1,-3.098785162E0,3.945816040E0,-1.787135959E0
1.597605022E1,-1.370959282E0,4.152350426E0,1.020707846E0
1.599594069E1,-1.532991767E0,3.116936684E0,3.323985815E0
1.601584726E1,-4.238112450E0,1.824571609E0,2.353797674E0
1.603574569E1,-5.287800789E0,1.374064445E0,1.398673534E0
1.605561939E1,-3.591968060E0,1.039333344E0,1.313595057E0
1.607549387E1,-2.501476765E0,4.887037277E-1,5.052654743E-1
1.609537637E1,-2.300868750E0,6.158237457E-1,-5.820769072E-1
1.611528043E1,-2.363169432E0,1.470652580E0,-5.573854446E-1
1.613518783E1,-1.754128456E0,1.974294662E0,7.791789770E-1
1.615505095E1,-1.738091230E0,1.988587379E0,6.842740774E-1
1.617496444E1,-2.209837437E0,2.707272530E0,-3.017139435E-1
1.619483366E1,-2.554555416E0,3.185603142E0,-6.891472340E-1
1.621472496E1,-2.888844013E0,2.755506516E0,-1.387012005E-1
1.623461600E1,-2.629469633E0,1.777881622E0,7.880424261E-1
1.625452215E1,-2.338711739E0,1.237545967E0,1.291180491E0
1.627441236E1,-2.051013708E0,1.197315216E0,1.205091596E0
1.629430757E1,-1.722537279E0,1.218637466E0,8.610302210E-1
1.631424476E1,-1.643236518E0,6.335744858E-1,5.585042238E-1
1.633407376E1,-1.672110319E0,2.023601532E-1,1.660225391E-1
1.635399621E1,-1.561243176E0,3.905715942E-1,-1.912606955E-1
1.637391699E1,-1.252502561E0,6.428499222E-1,-5.762314796E-1
1.639378986E1,-8.558008671E-1,5.409069061E-1,-6.507509947E-1
1.641365054E1,-5.979397297E-1,5.902576447E-2,-2.035272121E-1
1.643353491E1,-4.682953358E-1,-2.171449661E-1,3.783607483E-2
1.645346007E1,-4.421715736E-1,-1.215820312E-1,8.933782578E-2
1.647334423E1,-6.113057137E-1,2.519989014E-2,1.763179302E-1
1.649324976E1,-7.061756849E-1,8.615303040E-2,1.892592907E-1
1.651316366E1,-1.573004723E-1,5.440044403E-2,1.323618889E-1
1.653300330E1,3.849933147E-1,3.551940918E-1,-2.147388458E-2
1.655290856E1,4.654064178E-1,4.872016907E-1,-7.175016403E-2
1.657279814E1,1.498479843E-1,1.885604858E-1,1.433403492E-1
1.659266824E1,-1.868052483E-1,-2.730464935E-2,3.555746078E-1
1.661256736E1,2.349853516E-3,-2.140712738E-2,4.221303463E-1
1.663246069E1,4.256916046E-1,-4.090404510E-2,4.653477669E-1
1.665237783E1,4.859948158E-1,-4.677581787E-2,8.276700974E-2
1.667227726E1,2.114174366E-1,4.375953674E-1,-5.349404812E-1
1.669214814E1,-3.207814693E-1,6.311779022E-1,-7.257734537E-1
1.671203043E1,-7.196986675E-1,3.683509827E-1,-2.775130272E-1
1.673192908E1,-8.019754887E-1,2.330751419E-1,2.358794212E-1
1.675179335E1,-2.701616287E-1,3.572340012E-1,2.485663891E-1
1.677170601E1,1.392152309E-1,3.959684372E-1,2.801084518E-2
1.679158324E1,4.640150070E-2,2.494430542E-1,-9.372210503E-2
1.681148429E1,-1.241941452E-1,1.162376404E-1,-4.657983780E-3
1.683135752E1,-1.751227379E-1,1.759996414E-1,-1.545381546E-2
1.685126262E1,-1.062226295E-2,6.950759888E-2,-1.791832447E-1
1.687121444E1,9.220218658E-2,-6.661605835E-2,-2.401373386E-1
1.689103048E1,9.236478806E-2,-1.184835434E-1,-1.960277557E-1
1.691094486E1,2.612726688E-1,-2.157688141E-1,-1.758909225E-1
1.693084278E1,6.546790600E-1,-3.038396835E-1,1.855874062E-2
1.695072861E1,7.052786350E-1,-3.619289398E-2,1.966326237E-1
1.697060168E1,4.173593521E-1,1.850728989E-1,1.006035805E-1
1.699051965E1,1.496295929E-1,1.820955276E-1,7.876372337E-2
1.701039319E1,3.751773834E-1,-1.084117889E-1,2.314426899E-1
1.703031757E1,9.959812164E-1,-4.923486710E-1,1.788733006E-1
1.705020960E1,1.477571487E0,-5.271663666E-1,2.791810036E-2
1.707005324E1,1.835915804E0,-6.262116432E-1,-1.059012413E-1
1.708996731E1,2.372180939E0,-1.217174053E0,-2.281053066E-1
1.710987194E1,2.823303223E0,-1.835950851E0,-4.260821342E-1
1.712974736E1,2.301579952E0,-2.306921482E0,-7.687659264E-1
1.714963231E1,9.932579994E-1,-2.849112988E0,-1.242270470E0
1.716953642E1,-2.661004066E-1,-3.742731571E0,-2.094573975E0
1.718943465E1,-1.195468187E0,-4.958170891E0,-2.770665646E0
1.720932590E1,-2.386076927E0,-6.142970085E0,-2.629354715E0
1.722920231E1,-4.119917870E0,-6.626390457E0,-1.936311245E0
1.724909309E1,-5.455433846E0,-6.511512756E0,-1.414983511E0
1.726897418E1,-6.244771957E0,-6.721848011E0,-8.530571461E-1
1.728889819E1,-7.417885780E0,-7.378361225E0,-3.930889964E-1
1.730873804E1,-9.444744110E0,-7.039319038E0,-4.492789209E-1
1.732865330E1,-1.174324417E1,-5.670975208E0,-7.721363902E-1
1.734854564E1,-1.357816029E1,-4.147087097E0,-8.825857639E-1
1.736843783E1,-1.458452129E1,-2.704803944E0,-8.583779335E-1
1.738834632E1,-1.418235207E1,-4.488871098E-1,-4.311532974E-1
1.740826887E1,-1.393857002E1,5.651030540E0,-9.982576370E-1
1.742811522E1,-1.195650673E1,9.947563171E0,-5.959704399E0
1.744800548E1,-5.267699242E0,1.628748703E1,-1.625412369E1
1.746790022E1,1.013599682E1,3.619890976E1,-3.273270416E1
1.748776866E1,8.717823029E0,4.490227890E1,-5.717101288E1
1.750767949E1,-4.833759308E0,3.144092369E1,-6.942747498E1
1.752756783E1,-2.040195227E0,5.824436665E0,-6.912232971E1
1.754747215E1,9.805332184E0,-1.130203915E1,-6.653314972E1
1.756734798E1,2.036998749E1,-1.877197266E1,-5.784091187E1
1.758726038E1,2.709739876E1,-3.455401230E1,-5.338789368E1
1.760714423E1,2.503314209E1,-4.840417099E1,-4.616743851E1
1.762700871E1,1.551634979E1,-4.891777420E1,-3.165245819E1
1.764692226E1,9.073602676E0,-4.748643875E1,-1.956700706E1
1.766678970E1,6.871967316E0,-4.665101242E1,-1.462005138E1
1.768669861E1,4.023618221E0,-4.030639648E1,-1.140966797E1
1.770659444E1,3.878657818E-1,-3.330014038E1,-8.030662537E0
1.772646116E1,-1.141756892E0,-2.564860535E1,-5.140390396E0
1.774636153E1,-7.028023005E-1,-1.881812668E1,-3.058128357E0
1.776626783E1,4.980129004E-1,-1.363529301E1,-2.752884865E0
1.778616080E1,7.059211135E-1,-9.870244980E0,-3.093938828E0
1.780603798E1,-1.156547945E-2,-6.676576138E0,-2.477517605E0
1.782593298E1,1.252093911E-1,-3.216279984E0,-5.680873394E-1
1.784581017E1,-1.284446716E0,-1.900817394E0,7.212572098E-1
1.786571048E1,-2.778776169E0,9.980487823E-2,5.149786472E-1
1.788561153E1,-2.977507114E0,3.965912819E0,-4.647965431E-1
1.790547272E1,-1.315675497E0,5.111144066E0,1.978490591E0
1.792539882E1,-1.089259267E0,4.230912209E0,3.354760170E0
1.794529111E1,-2.246052980E0,3.435572624E0,1.502243042E0
1.796519189E1,-1.514108181E0,3.299253464E0,2.816042185E0
1.798503835E1,-6.117828488E-1,2.788224220E0,3.220805883E0
1.800492699E1,-1.585111856E0,2.194698334E0,1.521703005E0
1.802485892E1,-3.066694021E0,2.232443810E0,4.167385101E-1
1.804473319E1,-2.950865984E0,1.800467491E0,1.663380384E0
1.806459111E1,-2.182710648E0,5.806417465E-1,2.385164976E0
1.808449814E1,-1.996658206E0,9.582233429E-2,1.371395350E0
1.810440465E1,-1.741657138E0,5.838184357E-1,7.701225281E-1
1.812431059E1,-1.236947894E0,1.160223961E0,7.449603081E-2
1.814420486E1,-1.956217289E-1,1.048068047E0,-1.804239750E-1
1.816405064E1,4.248023033E-1,1.047725677E0,1.154077530E0
1.818396496E1,-2.283296585E-1,1.488625526E0,1.641257524E0
1.820383306E1,-1.278736472E0,1.610424995E0,5.793740749E-1
1.822372520E1,-1.632156849E0,1.630685806E0,-5.221282244E-1
1.824363661E1,-1.316887259E0,1.644069672E0,-5.206159353E-1
1.826350952E1,-1.079643488E0,1.241858482E0,-1.973142624E-1
1.828338906E1,-1.340964079E0,7.328939438E-1,1.633946896E-1
1.830329020E1,-1.796662331E0,5.703668594E-1,4.877662659E-1
1.832319932E1,-2.295927048E0,5.599050522E-1,4.945425987E-1
1.834313682E1,-2.336031437E0,4.963226318E-1,1.634650230E-1
1.836296244E1,-1.908062696E0,4.581670761E-1,-1.605799198E-1
1.838289760E1,-1.352327704E0,7.147016525E-1,-2.695658207E-1
1.840278432E1,-1.041561484E0,7.493953705E-1,-2.861645222E-1
1.842264077E1,-9.692703485E-1,5.713682175E-1,-2.238237858E-1
1.844254015E1,-1.021993995E0,2.906236649E-1,-2.002122402E-1
1.846244234E1,-1.082119465E0,2.282743454E-1,-1.019167900E-1
1.848237166E1,-1.121355414E0,3.537921906E-1,-1.009905338E-1
1.850226796E1,-6.902823448E-1,3.115358353E-1,-2.383077145E-1
1.852212473E1,-2.689590454E-1,3.674516678E-1,-5.640029907E-3
1.854201333E1,-1.324443817E-1,4.595603943E-1,3.776674271E-1
1.856191244E1,-2.985947132E-1,5.564250946E-1,2.872002125E-1
1.858181067E1,-3.052201271E-1,6.192464828E-1,2.851724625E-3
1.860166624E1,-2.966706753E-1,5.203475952E-1,5.218887329E-2
1.862157791E1,-2.372398376E-1,3.079347610E-1,2.551519871E-1
1.864146291E1,-2.126553059E-1,3.873119354E-1,3.839457035E-1
1.866136411E1,-6.570792198E-2,5.763807297E-1,3.145217896E-1
1.868125114E1,2.847542763E-1,5.432806015E-1,2.310130596E-1
1.870114135E1,3.612253666E-1,3.935709000E-1,2.655529976E-1
1.872102468E1,3.070566654E-1,5.572910309E-1,2.883729935E-1
1.874095494E1,4.903979301E-1,4.907264709E-1,3.450016975E-1
1.876080478E1,3.802495003E-1,2.702245712E-1,1.734099388E-1
1.878070520E1,7.539510727E-2,1.550521851E-1,-6.477141380E-2
1.880059265E1,-3.501107693E-1,1.975498199E-1,-1.223907471E-1
1.882049432E1,-7.405066490E-1,8.974647522E-2,-9.223294258E-2
1.884037583E1,-7.685086727E-1,1.815223694E-2,-1.222488880E-1
1.886028635E1,-6.390254498E-1,3.167705536E-1,-1.941015720E-1
1.888018030E1,-4.244229794E-1,2.402563095E-1,-2.270989418E-1
1.890006421E1,-2.152330875E-1,-1.403808594E-2,6.172084808E-2
1.891998416E1,6.723213196E-2,-2.173461914E-1,1.350405216E-1
1.893985192E1,3.999722004E-1,-2.996625900E-1,5.155992508E-2
1.895969702E1,8.165290356E-1,-3.053808212E-1,1.608886719E-1
1.897959458E1,1.322783709E0,-5.327730179E-1,2.643501759E-1
1.899950791E1,1.719200373E0,-7.687983513E-1,3.302803040E-1
1.901939275E1,1.852454424E0,-9.486112595E-1,4.311573505E-1
1.903927343E1,1.931247473E0,-9.410324097E-1,3.858773708E-1
1.905916645E1,2.039129257E0,-1.031828880E0,1.281404495E-1
1.907905713E1,1.921759605E0,-1.309809208E0,-9.872174263E-2
1.909894286E1,1.687497139E0,-1.456448555E0,-3.952980042E-1
1.911887234E1,1.478536606E0,-1.433668137E0,-7.568578720E-1
1.913872166E1,1.554808617E0,-1.623718262E0,-1.262021303E0
1.915864307E1,1.519651413E0,-2.191019058E0,-1.688712239E0
1.917851937E1,7.802672386E-1,-2.987769127E0,-2.076167583E0
1.919841796E1,-7.947306633E-1,-3.466209888E0,-2.202569008E0
1.921832801E1,-2.729505301E0,-3.667402506E0,-2.136319637E0
1.923821775E1,-4.547902584E0,-4.058053017E0,-2.328893185E0
1.925807728E1,-6.180058479E0,-5.170189857E0,-2.921566486E0
1.927797588E1,-7.133823395E0,-6.080485344E0,-2.261974335E0
1.929788775E1,-7.627422810E0,-6.937446117E0,-8.628141880E-1
1.931777150E1,-8.683557510E0,-7.366864681E0,-8.713530004E-2
1.933764176E1,-9.689596176E0,-6.678441048E0,-8.972084522E-2
1.935754458E1,-1.046212769E1,-4.954076290E0,-3.375067711E-1
1.937742817E1,-1.173069382E1,-1.637756109E0,-5.287361145E-1
1.939730864E1,-1.105276108E1,1.874849319E0,-1.261502266E0
1.941720390E1,-7.817325115E0,6.481859207E0,-5.953397751E0
1.943709228E1,-5.323777199E0,1.113142681E1,-1.262798309E1
1.945699609E1,-5.384075165E0,1.459327888E1,-1.651565933E1
1.947690067E1,-6.894021034E-1,2.218706131E1,-2.560594177E1
1.949677853E1,1.113168812E1,3.412964630E1,-4.333837891E1
1.951665031E1,5.291680813E0,4.058459091E1,-4.549916077E1
1.953656723E1,-9.597211838E0,3.458991241E1,-4.313738251E1
1.955643692E1,-5.803686619E0,1.598002243E1,-4.871945953E1
1.957635973E1,2.216024637E0,-3.238636494E0,-5.027895355E1
1.959624244E1,7.341811180E0,-1.328780746E1,-4.335369873E1
1.961613525E1,1.124071026E1,-1.895455360E1,-3.914068222E1
1.963600791E1,1.131015682E1,-2.765314865E1,-3.819473267E1
1.965592952E1,7.310857773E0,-4.046166611E1,-3.536824036E1
1.967580786E1,7.123553753E0,-4.465563202E1,-2.394268417E1
1.969569140E1,6.589924812E0,-3.920851898E1,-1.061138535E1
1.971556885E1,4.566544056E0,-3.267512512E1,-8.527682304E0
1.973548244E1,2.068775892E0,-2.880237961E1,-1.081977272E1
1.975535421E1,6.216902137E-1,-2.262858391E1,-7.575164318E0
1.977525176E1,8.742969036E-1,-1.613096809E1,-3.064924479E0
1.979515380E1,-3.392480612E-1,-1.140661049E1,-1.500785828E0
1.981502145E1,-2.866513252E0,-6.415142059E0,-2.884963989E0
1.983491838E1,-1.579274774E0,-1.163101196E0,-7.711472511E-1
1.985482661E1,-1.223058701E-1,2.112820625E0,2.693551064E0
1.987470713E1,-3.403072357E0,2.051749229E0,3.265526056E0
1.989459364E1,-5.636452675E0,2.696837425E0,4.237236977E0
1.991447676E1,-1.624937057E0,3.636009216E0,6.802145958E0
1.993438359E1,5.291781425E-1,2.571403503E0,4.819921970E0
1.995429156E1,-1.667495131E0,1.649110794E0,1.225488186E0
1.997418656E1,-4.523674488E0,-1.041319370E0,2.978931904E0
1.999404822E1,-2.370784760E0,-4.878044128E-2,9.269088745E0
2.001393656E1,-3.853460550E-1,3.746576309E-1,6.499813080E0
2.003383749E1,1.265382767E-2,1.906661987E-1,-7.772676945E-1
2.005370937E1,-3.861236572E-2,1.358799934E0,-3.231906414E0
2.007360187E1,-5.073549747E-1,2.074511528E0,-2.591861725E0
2.009350838E1,-6.899094582E-1,1.259627342E0,-1.023848653E0
2.011338874E1,-5.480997562E-1,5.076198578E-1,-7.101817131E-1
2.013329567E1,-1.135742545E0,3.524885178E-1,-5.825709105E-1
2.015320057E1,-2.119052172E0,1.139400482E0,1.655292511E-1
2.017308025E1,-2.551278353E0,1.285449982E0,2.467370033E-2
2.019294202E1,-2.738769770E0,1.017415047E0,-3.705554008E-1
2.021282791E1,-2.459890842E0,1.191255569E0,-4.439884424E-1
2.023272213E1,-2.113858938E0,1.534753799E0,-4.313027859E-1
2.025264963E1,-1.995181441E0,1.471575737E0,-1.980280876E-1
2.027253661E1,-2.067181826E0,1.498308182E0,3.349661827E-2
2.029239770E1,-2.120086670E0,1.320543289E0,4.286985397E-1
2.031230072E1,-2.078555584E0,1.085038185E0,5.915853977E-1
2.033223593E1,-1.878905773E0,1.225932121E0,3.176796436E-1
2.035206447E1,-1.704518080E0,1.227359772E0,1.502165794E-1
2.037199114E1,-1.771748304E0,1.000182152E0,3.176131248E-1
2.039186416E1,-2.127379179E0,6.364898682E-1,3.441774845E-1
2.041176775E1,-2.060717821E0,3.793983459E-1,4.333138466E-2
2.043166202E1,-1.454298735E0,3.396778107E-1,-2.982542515E-1
2.045154442E1,-1.510940552E0,6.714830399E-1,-3.149197102E-1
2.047140765E1,-1.427675128E0,6.211633682E-1,-2.610871792E-1
2.049131088E1,-7.909328938E-1,1.964092255E-1,-2.585282326E-1
2.051125713E1,-1.178190708E-1,-1.869201660E-4,-1.786999702E-1
2.053108291E1,1.755154133E-1,2.634449005E-1,-9.530997276E-2
2.055097947E1,-1.173083782E-1,4.125833511E-1,-5.711579323E-2
2.057087614E1,-5.197267532E-1,2.009611130E-1,1.592178345E-1
2.059077640E1,-6.730589867E-1,-3.173637390E-2,2.558929920E-1
2.061065728E1,-5.915441513E-1,5.331230164E-2,-4.508495331E-4
2.063055546E1,-5.283641815E-2,2.081851959E-1,-2.281830311E-1
2.065045598E1,2.392549515E-1,2.498483658E-1,-2.619907856E-1
2.067037640E1,3.922231197E-1,2.564678192E-1,-2.443344593E-1
2.069026833E1,2.588965893E-1,4.415979385E-1,-1.883852482E-1
2.071013067E1,-1.344552040E-1,4.274234772E-1,9.969186783E-2
2.073004057E1,-3.718907833E-1,2.870979309E-1,3.027489185E-1
2.074990119E1,-2.641625404E-1,1.810607910E-1,1.180708408E-1
2.076982442E1,-2.695631981E-2,1.479349136E-1,-2.437953949E-1
2.078969791E1,2.047061920E-2,1.789178848E-1,-3.569297791E-1
2.080957874E1,1.487658024E-1,1.431035995E-1,-1.764626503E-1
2.082948494E1,1.746823788E-1,1.411342621E-1,6.379270554E-2
2.084938525E1,1.214504242E-1,1.735706329E-1,1.022148132E-1
2.086924947E1,-1.002788544E-2,2.530593872E-1,-3.866434097E-3
2.088917973E1,-2.185654640E-1,1.231822968E-1,-4.095482826E-2
2.090904895E1,-1.356477737E-1,-8.089733124E-2,-3.838610649E-2
2.092893442E1,2.215993404E-1,-1.009559631E-1,5.586719513E-2
2.094883786E1,5.654006004E-1,-2.432346344E-2,1.779470444E-1
2.096872973E1,6.831934452E-1,-3.822326660E-2,2.714080811E-1
2.098859780E1,7.566745281E-1,-2.208652496E-1,2.772049904E-1
2.100848728E1,8.276443481E-1,-3.254747391E-1,2.036123276E-1
2.102841583E1,8.615760803E-1,-2.219448090E-1,4.683756828E-2
2.104829952E1,8.860146999E-1,-1.115226746E-1,-7.515501976E-2
2.106819536E1,1.093246937E0,-4.760932922E-1,-5.890917778E-2
2.108807682E1,1.593203068E0,-7.931356430E-1,5.456757545E-2
2.110796702E1,1.625731945E0,-7.759399414E-1,-2.231240273E-2
2.112785807E1,1.320354462E0,-6.980862617E-1,-1.998553276E-1
2.114773687E1,1.140123129E0,-7.140407562E-1,-3.649590015E-1
2.116761150E1,1.143651009E0,-7.823319435E-1,-6.039464474E-1
2.118751833E1,1.263427496E0,-9.609384537E-1,-7.517764568E-1
2.120741942E1,8.160212040E-1,-1.184285164E0,-6.726989746E-1
2.122728697E1,-1.905608177E-1,-1.753254414E0,-7.519581318E-1
2.124722369E1,-5.034465790E-1,-2.639406681E0,-1.121423244E0
2.126709630E1,-3.257012367E-1,-3.733904839E0,-1.486899614E0
2.128696656E1,-1.026550770E0,-4.954076290E0,-1.995899796E0
2.130688369E1,-2.012712002E0,-6.322719574E0,-2.445998907E0
2.132676723E1,-2.588168859E0,-7.418544769E0,-2.285346985E0
2.134662025E1,-3.571020842E0,-7.349758148E0,-1.409548640E0
2.136655796E1,-4.957849503E0,-6.933433056E0,-3.773779869E-1
2.138644546E1,-5.960674286E0,-6.610084534E0,1.090219975E0
2.140631848E1,-7.101076603E0,-6.355554581E0,2.376243114E0
2.142621942E1,-8.927836418E0,-5.147711277E0,2.499257565E0
2.144611088E1,-1.061487961E1,-2.342144966E0,1.324468136E0
2.146600541E1,-1.260606956E1,-4.132306576E-1,2.065937042E0
2.148589859E1,-1.578447056E1,7.443814278E0,1.240000248E0
2.150575447E1,-1.460917091E1,1.730499840E1,-1.318750381E-1
2.152566791E1,-1.017557049E1,2.376873207E1,-5.576662064E0
2.154555421E1,7.088423252E0,3.460052490E1,-2.523721695E1
2.156545702E1,2.273277283E1,4.176201248E1,-5.178311539E1
2.158535067E1,-4.206332207E0,3.699881363E1,-6.973057556E1
2.160524515E1,-1.500250435E1,1.661933327E1,-6.947631836E1
2.162513015E1,-3.673903942E-1,-8.958127022E0,-6.881218719E1
2.164502723E1,1.315896416E1,-1.456845951E1,-6.532217407E1
2.166492359E1,1.801242256E1,-2.594336319E1,-6.002145004E1
2.168477603E1,1.891675377E1,-4.524473953E1,-5.447042847E1
2.170469135E1,1.081257248E1,-5.369023895E1,-4.370726013E1
2.172459062E1,2.394590378E0,-5.023435974E1,-2.936474991E1
2.174445656E1,1.960979998E-1,-4.740670776E1,-1.681748199E1
2.176437822E1,3.262961864E0,-4.159102249E1,-1.079461098E1
2.178428640E1,2.820552111E0,-3.538454819E1,-9.127489090E0
2.180419046E1,9.090371728E-1,-2.950784302E1,-6.499706268E0
2.182404880E1,-1.315539837E0,-2.261973572E1,-3.650661469E0
2.184393781E1,-3.348190546E0,-1.688035393E1,-2.239686489E0
2.186379932E1,-2.536005974E0,-1.295802975E1,-1.621301532E0
2.188370353E1,-1.812877893E0,-9.592748642E0,-1.603511810E0
2.190357911E1,-7.927064300E-1,-5.856710434E0,-2.457633495E0
2.192349041E1,1.348884583E0,-2.057352066E0,-1.228894949E0
2.194336812E1,1.612445831E0,7.352151871E-1,8.299338818E-1
2.196328140E1,9.035146236E-2,2.625952721E0,2.061054707E-1
2.198320270E1,-1.462764144E0,4.978905678E0,-9.351382256E-1
2.200306239E1,-4.739011526E-1,6.282641411E0,2.823256016E0
2.202292291E1,-3.236985207E-2,5.383017540E0,4.913648129E0
2.204282374E1,-1.634681940E0,4.204868317E0,1.902120352E0
2.206272343E1,-1.701316118E0,4.059883118E0,2.072084665E0
2.208262973E1,-1.044803619E0,3.453803062E0,4.424603462E0
2.210249114E1,-1.726539731E0,2.568329811E0,4.917425156E0
2.212243562E1,-2.031060219E0,2.567864418E0,3.900559902E0
2.214229697E1,-1.060341597E0,2.264797211E0,3.618667603E0
2.216221853E1,-1.938629150E-1,1.845928192E0,3.083856106E0
2.218208213E1,2.837762833E-1,1.572974205E0,1.175186396E0
2.220197416E1,2.311024666E-1,2.004747391E0,-1.270521879E-1
2.222185900E1,-1.916418076E-1,1.509421349E0,-6.021664143E-1
2.224175004E1,-1.202244043E0,8.414163589E-1,-5.292333364E-1
2.226164671E1,-1.905656219E0,7.845392227E-1,-4.990439415E-1
2.228153687E1,-2.254624844E0,7.777423859E-1,-5.098680258E-1
2.230140635E1,-2.534643888E0,4.625158310E-1,-4.882159233E-1
2.232130687E1,-2.692746401E0,2.342948914E-1,-5.729054213E-1
2.234121682E1,-2.791091681E0,6.513261795E-1,-5.722327232E-1
2.236108124E1,-2.601642609E0,9.988584518E-1,-4.667545557E-1
2.238097588E1,-2.625489950E0,9.676685333E-1,-2.218725681E-1
2.240089130E1,-2.333662510E0,9.156408310E-1,-4.061484337E-2
2.242074656E1,-2.199638605E0,1.025859833E0,2.296526432E-1
2.244066338E1,-2.042466164E0,1.020060539E0,4.597363472E-1
2.246054848E1,-1.532007575E0,8.856582642E-1,4.507379532E-1
2.248043827E1,-1.258377790E0,7.530899048E-1,6.100766659E-1
2.250032786E1,-9.725008011E-1,7.237024307E-1,6.730957031E-1
2.252029796E1,-5.899639130E-1,8.834772110E-1,4.107208252E-1
2.254010895E1,-1.370511055E-1,7.379550934E-1,2.841315269E-1
2.255999921E1,-5.529379845E-2,5.366792679E-1,4.933369160E-1
2.257988796E1,-3.269009590E-1,5.414133072E-1,4.659092426E-1
2.259977171E1,-6.544599533E-1,6.486406326E-1,1.525549889E-1
2.261966228E1,-6.388587952E-1,5.130252838E-1,-2.926325798E-2
2.263955723E1,-5.091977119E-1,2.177543640E-1,4.689097404E-2
2.265946348E1,-4.450378418E-1,1.473817825E-1,7.369017601E-2
2.267937458E1,-5.157949924E-1,3.496017456E-1,-1.094715595E-1
2.269924020E1,-4.617598057E-1,3.476638794E-1,-2.249591351E-1
2.271915077E1,-3.045165539E-1,2.801389694E-1,-8.301019669E-2
2.273902364E1,-1.613049507E-1,3.985900879E-1,2.300906181E-2
2.275893005E1,-1.071434021E-1,4.541797638E-1,5.996227264E-3
2.277882348E1,-2.699084282E-1,2.472028732E-1,1.516675949E-1
2.279870254E1,-3.034422398E-1,5.967140198E-3,1.410102844E-1
2.281859004E1,-4.604005814E-2,-4.629707336E-2,-6.371998787E-2
2.283847239E1,9.737372398E-2,1.225109100E-1,-1.771056652E-1
2.285838473E1,1.107079983E-1,1.076517105E-1,-1.323823929E-1
2.287829234E1,1.577055454E-1,-1.385974884E-1,1.526808739E-2
2.289817963E1,3.148193359E-1,-2.073602676E-1,6.413078308E-2
2.291803780E1,4.523341656E-1,7.027149200E-2,-2.547574043E-2
2.293791963E1,4.218931198E-1,2.105798721E-1,2.345252037E-2
2.295784234E1,1.797418594E-1,9.149551392E-2,2.354149818E-1
2.297772400E1,1.933772564E-1,-5.753898621E-2,2.227809429E-1
2.299761817E1,2.687196732E-1,2.292566299E-1,8.307671547E-2
2.301750057E1,2.296996117E-1,1.935081482E-1,3.133916855E-2
2.303740463E1,1.429433823E-1,5.788803101E-3,1.714339256E-1
2.305727880E1,1.969735622E-1,1.419391632E-1,3.304023743E-1
2.307719869E1,3.453335762E-1,2.158794403E-1,3.781516552E-1
2.309707499E1,5.631461143E-1,1.085538864E-1,5.144352913E-1
2.311695489E1,7.748229504E-1,-1.134672165E-1,6.697542667E-1
2.313686963E1,1.181876183E0,-4.206638336E-1,6.633410454E-1
2.315672666E1,1.918139935E0,-8.487448692E-1,5.887467861E-1
2.317665452E1,2.636619091E0,-1.314080238E0,3.450415134E-1
2.319652447E1,3.066846609E0,-2.210885525E0,-3.153944016E-1
2.321646447E1,3.567521095E0,-3.403911114E0,-1.421625137E0
2.323628812E1,4.218190193E0,-4.550798416E0,-2.651582718E0
2.325619348E1,4.082290173E0,-5.288755417E0,-3.432994366E0
2.327608208E1,2.820958614E0,-5.344434738E0,-4.041977882E0
2.329596385E1,6.887812614E-1,-4.741932869E0,-4.193104744E0
2.331589567E1,-1.416631222E0,-4.713935375E0,-3.710085392E0
2.333576291E1,-3.325895071E0,-5.044005394E0,-3.049295664E0
2.335566171E1,-5.574998379E0,-5.670114517E0,-1.742244005E0
2.337553239E1,-7.484387398E0,-6.891232967E0,-3.294090927E-1
2.339543380E1,-9.326998711E0,-7.033635616E0,4.988974929E-1
2.341533421E1,-1.147660446E1,-5.723066330E0,2.195906639E-1
2.343521588E1,-1.228340626E1,-1.346652746E0,-1.039880514E0
2.345512557E1,-1.127929497E1,-6.915013790E-1,3.916701317E0
2.347498635E1,-1.068974304E1,3.712445498E0,6.575357437E0
2.349491395E1,-1.207078266E1,9.026818275E0,-3.838863373E-1
2.351476426E1,-7.365831375E0,1.307487011E1,-7.346067429E0
2.353467754E1,-9.901611805E-1,2.230862808E1,-1.212571812E1
2.355454864E1,4.580811501E0,3.756436157E1,-2.329618073E1
2.357444978E1,5.870573044E0,3.967674255E1,-5.419219971E1
2.359434765E1,9.923613071E-2,3.651751328E1,-6.948779297E1
2.361428609E1,4.405533791E0,2.762943077E1,-6.906902313E1
2.363414984E1,1.686657333E1,5.906825066E0,-6.762474823E1
2.365402473E1,2.161225510E1,-1.302902985E1,-5.932678604E1
2.367393452E1,2.483569717E1,-2.702449226E1,-5.351780319E1
2.369380619E1,2.593904686E1,-3.890571976E1,-5.079516602E1
2.371369588E1,1.887000275E1,-4.946330643E1,-4.333669281E1
2.373359005E1,5.619430542E0,-4.616323090E1,-2.971335602E1
2.375348343E1,1.234958649E0,-3.995824432E1,-1.801663208E1
2.377338327E1,5.085927486E0,-3.708447647E1,-1.564290142E1
2.379323744E1,4.326335430E0,-3.513620758E1,-1.369119263E1
2.381318020E1,7.022033930E-1,-3.072155762E1,-8.308446884E0
2.383304588E1,-1.283495784E0,-2.345089722E1,-4.183747292E0
2.385294984E1,-1.375491977E0,-1.752785683E1,-3.376543045E0
2.387283176E1,-5.971350074E-1,-1.356726265E1,-3.396173716E0
2.389271963E1,-2.326520085E-1,-1.055533504E1,-3.249731064E0
2.391262004E1,5.984842777E-2,-7.455544472E0,-2.091091633E0
2.393249353E1,5.419239998E-1,-3.804303646E0,-6.649188995E-1
2.395242103E1,1.635522693E-1,-5.863075256E-1,-7.651519775E-2
2.397226895E1,-4.703221023E-1,2.179218292E0,-9.261751175E-2
2.399220749E1,2.224695086E-1,4.447992325E0,6.127295494E-1
2.401204364E1,-2.890105247E-1,5.550435066E0,1.711268187E0
2.403193827E1,-1.027107477E0,5.810453415E0,3.525578260E0
2.405184239E1,-5.015009642E-2,5.322631836E0,5.564556122E0
2.407171624E1,-1.423796415E-1,4.109871864E0,4.234918118E0
2.409162900E1,-2.770834923E0,2.525053024E0,2.630756855E0
2.411151869E1,-3.819913864E0,2.835875511E0,4.651236534E0
2.413138906E1,-2.208837271E0,2.730472565E0,5.291355133E0
2.415130067E1,-1.323631406E0,1.425969124E0,2.552792549E0
2.417124760E1,-8.498686552E-1,1.246418953E0,8.059194088E-1
2.419107687E1,-5.967841148E-1,1.489346504E0,3.688979149E-2
2.421096353E1,-6.185238361E-1,1.273941040E0,-3.350918293E-1
2.423087786E1,-1.239914656E0,8.538579941E-1,-2.575609684E-1
2.425076057E1,-1.614800096E0,9.203186035E-1,-5.489730835E-2
2.427067109E1,-1.434604526E0,1.622681618E0,-6.550025940E-2
2.429054775E1,-1.393793225E0,1.798197746E0,-7.266736031E-2
2.431044848E1,-2.162897587E0,1.395680428E0,3.349561691E-1
2.433033083E1,-2.967086077E0,1.070095062E0,5.337984562E-1
2.435022197E1,-3.448660851E0,1.090274811E0,5.366110802E-1
2.437009004E1,-3.329487324E0,1.113396645E0,5.539650917E-1
2.438998322E1,-3.291499615E0,1.256110191E0,7.449097633E-1
2.440989202E1,-2.716490746E0,1.128064156E0,7.500181198E-1
2.442975281E1,-1.890285134E0,1.079233170E0,6.452631950E-1
2.444964859E1,-1.597597241E0,1.213951111E0,6.734414101E-1
2.446954385E1,-1.430342674E0,9.551315308E-1,6.377296448E-1
2.448942213E1,-1.479568362E0,8.444871902E-1,5.464649200E-1
2.450933536E1,-1.498288870E0,6.721467972E-1,3.678882122E-1
2.452925999E1,-1.231091619E0,3.489456177E-1,1.169958115E-1
2.454911546E1,-1.106090665E0,2.172641754E-1,1.488542557E-2
2.456899786E1,-8.802847862E-1,2.149305344E-1,-9.849810600E-2
2.458889333E1,-4.676506519E-1,3.615179062E-1,-1.882786751E-1
2.460878765E1,-4.641776085E-1,3.061532974E-1,7.215428352E-2
2.462867145E1,-5.277619362E-1,1.924896240E-2,2.205691338E-1
2.464858088E1,-2.209756374E-1,3.461837769E-3,-8.835911751E-2
2.466846947E1,2.247729301E-1,2.701807022E-1,-4.017535448E-1
2.468837077E1,4.221806526E-1,2.921247482E-1,-4.886941910E-1
2.470829661E1,1.984553337E-1,3.076839447E-1,-3.414591551E-1
2.472818780E1,-6.102561951E-2,6.897258759E-2,-4.078364372E-2
2.474804650E1,-2.165405750E-1,6.929683685E-2,4.824399948E-2
2.476793458E1,-2.905104160E-1,5.057716370E-1,-7.220935822E-2
2.478783630E1,-4.545834064E-1,7.110815048E-1,-2.090754509E-1
2.480770124E1,-5.945727825E-1,4.135856628E-1,-3.736058474E-1
2.482758968E1,-6.782615185E-1,2.245035172E-1,-4.690343142E-1
2.484748369E1,-6.894261837E-1,1.917362213E-1,-5.151855946E-1
2.486738062E1,-7.697877884E-1,1.601381302E-1,-4.980452061E-1
2.488728755E1,-9.544769526E-1,2.547035217E-1,-2.435270548E-1
2.490720041E1,-9.514477253E-1,3.526458740E-1,2.385354042E-2
2.492703978E1,-6.096291542E-1,3.352174759E-1,1.644682884E-1
2.494694786E1,-1.255304813E-1,2.676105499E-1,2.166125774E-1
2.496686015E1,3.644762039E-1,3.702125549E-1,2.097861767E-1
2.498674369E1,6.234869957E-1,4.463033676E-1,3.178017139E-1
2.500661103E1,5.358841419E-1,2.064428329E-1,6.681828499E-1
2.502651760E1,5.514903069E-1,-9.640502930E-2,7.050881386E-1
2.504639827E1,7.359325886E-1,-1.409645081E-1,5.330281258E-1
2.506631583E1,9.089798927E-1,-1.733303070E-1,4.696264267E-1
2.508621171E1,1.157507420E0,-4.384241104E-1,4.413304329E-1
2.510610671E1,1.467630148E0,-8.185911179E-1,4.241008759E-1
2.512598400E1,1.694419861E0,-8.108539581E-1,2.361240387E-1
2.514587036E1,1.954782486E0,-5.365228653E-1,-1.316068172E-1
2.516577130E1,2.279803276E0,-3.980703354E-1,-3.016041517E-1
2.518562812E1,2.761795998E0,-6.567153931E-1,-2.486567497E-1
2.520553973E1,3.329932451E0,-1.253686428E0,-7.367634773E-2
2.522543223E1,3.535732269E0,-1.547776699E0,-2.303782701E-1
2.524530827E1,3.175530195E0,-1.539331913E0,-5.287090540E-1
2.526523077E1,2.517094374E0,-1.602046490E0,-8.427872658E-1
2.528510833E1,1.534166574E0,-1.948346615E0,-1.244005203E0
2.530498333E1,9.867143631E-2,-2.500484467E0,-1.715652704E0
2.532489223E1,-1.701977968E0,-3.215038300E0,-2.335035563E0
2.534478140E1,-3.939910173E0,-3.781791687E0,-3.042407513E0
2.536464249E1,-5.840665817E0,-5.023614883E0,-3.262382030E0
2.538456015E1,-7.052834988E0,-6.663702488E0,-2.404095650E0
2.540444994E1,-7.725005627E0,-7.873134136E0,-8.445047736E-1
2.542436458E1,-8.399947166E0,-8.712720871E0,3.585925400E-1
2.544426885E1,-9.998649597E0,-8.617527008E0,1.138278604E0
2.546413973E1,-1.164088917E1,-6.353926659E0,1.600981355E0
2.548402562E1,-1.315837002E1,-3.725033522E0,1.153379679E0
2.550392400E1,-1.479604912E1,9.715046883E-1,7.264518738E-1
2.552379603E1,-1.642218399E1,1.381379700E1,-4.310784340E-1
2.554367338E1,-1.303762054E1,2.448406029E1,-2.916479111E0
2.556357723E1,-6.096289635E0,3.484687805E1,-5.706327438E0
2.558345322E1,1.524988556E1,5.077892685E1,-2.256038094E1
2.560334697E1,1.844399643E1,3.904269791E1,-6.158322144E1
2.562323848E1,-1.241239357E1,2.905107880E1,-6.889201355E1
2.564316114E1,-1.353946304E1,-1.160069704E-1,-6.774713135E1
2.566304702E1,9.645781517E-1,-1.419979858E1,-5.826561356E1
2.568291374E1,1.680982399E1,-1.265752411E1,-5.146763229E1
2.570282827E1,2.015290833E1,-2.697171402E1,-4.635090256E1
2.572271473E1,1.696638298E1,-4.007132721E1,-3.503921127E1
2.574260030E1,8.029409409E0,-4.613425064E1,-2.507914925E1
2.576248072E1,2.307653904E0,-4.492959595E1,-1.606025887E1
2.578239010E1,3.744652748E0,-4.114284515E1,-8.757059097E0
2.580228280E1,4.968005657E0,-3.844017792E1,-9.289218903E0
2.582220588E1,4.711829185E0,-3.292115021E1,-7.857442379E0
2.584206520E1,1.283716083E0,-2.530704880E1,-3.593689919E0
2.586194473E1,-2.529100180E-1,-1.881593513E1,-1.720763683E0
2.588181676E1,-6.106019616E-1,-1.508273411E1,-2.079827309E0
2.590173786E1,-1.192126989E0,-1.178839207E1,-2.383937597E0
2.592163223E1,-8.797612190E-1,-7.532512188E0,-1.034644127E0
2.594151911E1,-1.440523863E-1,-2.913217068E0,1.833881855E0
2.596140265E1,-1.690179348E0,-4.469947815E-1,3.340575933E0
2.598128812E1,-2.703854799E0,1.412856102E0,3.497344017E0
2.600123781E1,7.204316854E-1,4.103696823E0,4.715309143E0
2.602107452E1,1.978572607E0,5.197173119E0,4.102704048E0
2.604098442E1,-1.943069577E0,4.284755707E0,2.331404209E0
2.606086036E1,-2.098590136E0,4.177022934E0,4.193954468E0
2.608076275E1,1.425182819E-2,4.718058586E0,6.315333366E0
2.610064916E1,-8.374255896E-1,1.739886284E0,4.016577721E0
2.612054333E1,-3.333839893E0,-1.588544846E-1,5.232621193E0
2.614043353E1,-3.196577072E0,1.986444473E0,7.517082214E0
2.616034327E1,-1.706552863E0,6.677894592E-1,3.912841797E0
2.618025635E1,-1.535996675E0,6.970863342E-1,-8.628542423E-1
2.620010911E1,-2.039020777E0,1.208851814E0,-2.273931742E0
2.622000780E1,-2.340008974E0,1.421154022E0,-1.474627018E0
2.623988072E1,-1.979022264E0,1.234519005E0,-8.951807022E-2
2.625974911E1,-1.570142984E0,1.047476768E0,-2.472398281E-1
2.627964614E1,-1.655894279E0,1.274881363E0,-1.847069263E-1
2.629953635E1,-2.412377596E0,1.557167053E0,4.380376339E-1
2.631944702E1,-2.833249331E0,1.036023140E0,9.489765167E-1
2.633934671E1,-2.592425346E0,4.425926208E-1,6.812708378E-1
2.635921984E1,-2.088845491E0,4.116363525E-1,9.317874908E-3
2.637910114E1,-1.757698536E0,6.762666702E-1,-1.711993217E-1
2.639898135E1,-1.711077094E0,8.129167557E-1,3.552103043E-2
2.641887380E1,-1.708738923E0,7.835988998E-1,2.479927540E-1
2.643876228E1,-1.554689288E0,8.432092667E-1,4.188771248E-1
2.645865463E1,-1.553943157E0,9.906396866E-1,3.545281887E-1
2.647857057E1,-1.593727350E0,9.356651306E-1,1.970596313E-1
2.649847499E1,-1.668414235E0,7.677888870E-1,1.600999832E-1
2.651834765E1,-1.680846691E0,5.223455429E-1,2.259755135E-1
2.653829583E1,-1.673903704E0,5.139255524E-1,2.385153770E-1
2.655812603E1,-1.284805536E0,3.859939575E-1,2.899100780E-1
2.657802932E1,-7.684508562E-1,3.293342590E-1,2.525308132E-1
2.659792400E1,-1.534993649E-1,8.789730072E-2,3.891658783E-2
2.661780708E1,-4.954147339E-2,2.188215256E-1,2.222108841E-2
2.663770744E1,-2.299475670E-2,1.940584183E-1,4.532885551E-2
2.665759468E1,-1.160857677E-1,1.475887299E-1,8.688926697E-2
2.667748395E1,-8.040928841E-2,1.573352814E-1,1.067521572E-1
2.669736395E1,-1.303839684E-2,4.348754883E-2,1.094355583E-1
2.671727057E1,3.056216240E-2,8.911037445E-2,8.196878433E-2
2.673719885E1,-2.393412590E-2,3.611335754E-1,-1.147305965E-1
2.675704531E1,1.709270477E-2,4.949283600E-1,-1.613008976E-1
2.677693301E1,-3.257656097E-2,3.058109283E-1,8.528232574E-4
2.679684077E1,-7.078361511E-2,5.794239044E-2,8.928132057E-2
2.681674525E1,-2.149026394E-1,1.858062744E-1,6.537270546E-2
2.683660296E1,-3.212325573E-1,4.878082275E-1,-3.667569160E-2
2.685650551E1,-2.723212242E-1,3.858585358E-1,1.743721962E-2
2.687639843E1,5.883812904E-2,1.278295517E-1,1.530647278E-1
2.689629187E1,2.198584080E-1,7.525920868E-2,1.797251701E-1
2.691618728E1,2.518806458E-1,2.552347183E-1,1.506364346E-1
2.693607942E1,1.260061264E-1,3.392562866E-1,2.030301094E-1
2.695594708E1,-1.528024673E-2,1.318550110E-1,3.030521870E-1
2.697584754E1,2.715373039E-2,1.374721527E-2,4.049675465E-1
2.699574890E1,3.297369480E-1,1.955032349E-2,3.327343464E-1
2.701562942E1,6.391658783E-1,-4.237747192E-2,2.739245892E-1
2.703551697E1,8.230879307E-1,-3.448867798E-2,4.009220600E-1
2.705543015E1,1.396188259E0,-2.156333923E-1,5.559017658E-1
2.707532968E1,2.320769072E0,-4.214076996E-1,5.690605640E-1
2.709521025E1,3.222503185E0,-4.809141159E-1,3.748199940E-1
2.711508213E1,3.703346729E0,-8.546071053E-1,1.958088875E-1
2.713496801E1,3.447627783E0,-1.233682632E0,1.582877636E-1
2.715488666E1,3.134934902E0,-1.681020737E0,3.517484665E-2
2.717474937E1,3.350934029E0,-2.302855492E0,-7.276604176E-1
2.719467473E1,3.521584511E0,-3.060869217E0,-1.917466760E0
2.721452812E1,2.888374805E0,-3.601258278E0,-2.764597654E0
2.723445150E1,1.342699528E0,-4.095932007E0,-3.551299095E0
2.725434359E1,-3.378939629E-1,-4.250998974E0,-4.055465221E0
2.727428645E1,-2.063782930E0,-4.255990982E0,-4.108190060E0
2.729409067E1,-4.189332962E0,-4.145657539E0,-4.020019054E0
2.731398958E1,-6.386931419E0,-3.903538942E0,-3.249922752E0
2.733387916E1,-7.970031261E0,-4.387479305E0,-1.776473284E0
2.735378228E1,-9.915542603E0,-5.343582630E0,-7.796106339E-1
2.737367385E1,-1.250895309E1,-3.942789555E0,-2.818117738E-1
2.739357869E1,-1.471034145E1,-8.617105484E-1,-6.746066213E-1
2.741345880E1,-1.513864422E1,8.069696426E-1,-8.421993256E-2
2.743336421E1,-1.461672783E1,2.748031378E0,2.065387011E0
2.745325890E1,-1.513164711E1,8.896199226E0,3.363137245E-1
2.747312406E1,-1.354690933E1,1.371409130E1,-2.361631393E0
2.749303848E1,-1.042563248E1,2.050988007E1,-3.984518051E0
2.751293119E1,-9.804560542E-1,3.322837830E1,-1.155463123E1
2.753281187E1,2.159121704E1,3.460596848E1,-4.717266083E1
2.755270353E1,3.491222858E0,3.105938911E1,-6.979861450E1
2.757259666E1,-1.055818558E1,1.585137558E1,-6.965511322E1
2.759247890E1,3.408332348E0,-1.542738056E1,-6.922500610E1
2.761238921E1,2.039043045E1,-2.370683479E1,-6.440772247E1
2.763228963E1,2.820309639E1,-2.398924637E1,-5.412304688E1
2.765220223E1,2.823417473E1,-4.060899353E1,-5.178541946E1
2.767203166E1,2.003899002E1,-5.472865295E1,-4.022796631E1
2.769191926E1,4.881708622E0,-5.150680542E1,-2.357554436E1
2.771182598E1,1.153487563E0,-4.697231674E1,-1.130990124E1
2.773173432E1,4.065751553E0,-4.370067978E1,-9.612165451E0
2.775161921E1,3.963654280E0,-3.846959686E1,-1.031332970E1
2.777149786E1,2.002998352E0,-3.149616241E1,-7.061140060E0
2.779137338E1,-1.244783521E0,-2.451828766E1,-3.404767513E0
2.781126161E1,-2.911030531E0,-1.878094482E1,-1.777220249E0
2.783119770E1,-1.632132173E0,-1.477840614E1,-1.631628036E0
2.785107744E1,-4.008990824E-1,-1.171115780E1,-1.839423180E0
2.787094770E1,-4.454059601E-1,-8.295330048E0,-5.902383327E-1
2.789086755E1,-1.383401036E0,-4.634567261E0,1.163069010E0
2.791074999E1,-1.818051696E0,-1.059709549E0,1.454710484E0
2.793062239E1,-1.627905726E0,1.233841896E0,3.860940933E-1
2.795051176E1,8.979243040E-2,2.565845490E0,1.726812363E0
2.797042317E1,3.521277606E-1,3.234806061E0,2.827070713E0
2.799029551E1,-2.501952410E0,3.017710686E0,1.400353909E0
2.801024020E1,-3.149931431E0,3.332181931E0,1.411097765E0
2.803010473E1,8.002507687E-2,3.881587029E0,3.883281946E0
2.804998895E1,5.439845324E-1,3.316675186E0,2.856742859E0
2.806989077E1,-1.572264075E0,2.928452492E0,3.635263443E-2
2.808976156E1,-2.183312893E0,1.520379066E0,8.020644188E-1
2.810966031E1,-1.114076614E0,9.159412384E-1,4.841941833E0
2.812954208E1,-7.943910360E-1,1.345286369E0,4.197137833E0
2.814945734E1,-7.186256647E-1,1.847043037E0,4.202659130E-1
2.816932504E1,-1.551710844E0,2.566921234E0,-1.695345283E0
2.818924275E1,-1.784848571E0,2.246088028E0,-1.726657987E0
2.820916385E1,-1.478724122E0,2.062294960E0,-4.137730598E-1
2.822900260E1,-1.724426985E0,1.740595818E0,1.196530104E0
2.824891400E1,-2.656723499E0,1.893382072E0,1.908178449E0
2.826880031E1,-3.441707611E0,2.190374374E0,1.507922411E0
2.828868525E1,-3.644706249E0,2.302143097E0,1.873638630E-1
2.830856531E1,-3.501403809E0,2.369267464E0,-3.023797274E-1
2.832846666E1,-3.425328732E0,1.838167191E0,-2.249431610E-2
2.834833786E1,-3.243155479E0,1.030706406E0,1.541135311E-1
2.836825421E1,-3.002962351E0,8.858852386E-1,2.206537724E-1
2.838813833E1,-2.571670055E0,1.108606339E0,-1.823663712E-3
2.840801093E1,-2.086078167E0,1.080972672E0,-2.577131987E-1
2.842791270E1,-1.587409735E0,7.435541153E-1,-2.797288895E-1
2.844778270E1,-1.261649847E0,7.291574478E-1,-3.982651234E-1
2.846768202E1,-9.947297573E-1,9.050951004E-1,-4.710527658E-1
2.848757583E1,-8.823304176E-1,8.039054871E-1,-2.145217657E-1
2.850747994E1,-6.785181761E-1,5.052070618E-1,2.697358131E-1
2.852733952E1,-3.044998646E-1,4.964151382E-1,5.433052778E-1
2.854727718E1,2.731528282E-1,4.335536957E-1,4.341218472E-1
2.856712447E1,9.112856388E-1,2.451629639E-1,2.993370295E-1
2.858703385E1,1.312820435E0,3.994846344E-2,4.102213383E-1
2.860690880E1,1.512143135E0,-1.116571426E-1,5.139902830E-1
2.862681093E1,1.428686857E0,-2.412872314E-1,4.789131880E-1
2.864671109E1,1.428689241E0,-2.855548859E-1,2.583849430E-1
2.866660432E1,1.359925747E0,-4.636745453E-1,-1.521635056E-2
2.868651239E1,1.428761959E0,-4.969511032E-1,-1.638752222E-1
2.870639327E1,1.362740040E0,-3.606948853E-1,-1.556010246E-1
2.872627978E1,1.270141363E0,-2.999382019E-1,-1.959829330E-1
2.874621838E1,1.279162884E0,-1.938495636E-1,-3.910834789E-1
2.876611906E1,1.235888243E0,-8.024215698E-2,-5.949176550E-1
2.878597046E1,1.175484419E0,-2.526206970E-1,-6.614544392E-1
2.880586338E1,9.598524570E-1,-2.983751297E-1,-6.434012651E-1
2.882572635E1,7.150537968E-1,-6.127834320E-2,-6.954952478E-1
2.884563525E1,3.820619583E-1,2.303314209E-2,-5.725411177E-1
2.886551036E1,4.415678978E-1,-1.936788559E-1,-4.113122225E-1
2.888542786E1,5.072531700E-1,-2.904720306E-1,-3.116542101E-1
2.890529135E1,3.146910667E-1,-3.077144623E-1,-2.547670603E-1
2.892521593E1,3.534967899E-1,-5.316076279E-1,-4.701009989E-1
2.894507687E1,3.240623474E-1,-8.298840523E-1,-7.957472801E-1
2.896498874E1,-4.335525036E-1,-9.090523720E-1,-5.772849321E-1
2.898486223E1,-1.585776091E0,-1.307233810E0,-6.319398880E-1
2.900475421E1,-2.981194973E0,-2.077662945E0,-1.282233119E0
2.902464656E1,-4.372637272E0,-3.299429893E0,-1.920688510E0
2.904453130E1,-5.582934380E0,-4.293394089E0,-1.858575225E0
2.906443432E1,-6.589940548E0,-4.870593548E0,-8.526514173E-1
2.908435171E1,-7.431524754E0,-5.345415115E0,1.294714212E-1
2.910424947E1,-8.847744942E0,-4.751494408E0,1.152847409E-1
2.912411426E1,-1.008920574E1,-3.356116295E0,-6.904119998E-2
2.914399103E1,-1.089593887E1,-2.285678387E0,8.994144201E-2
2.916389890E1,-1.106337738E1,-7.437286377E-1,2.339792252E-2
2.918377031E1,-1.036554909E1,1.750676155E0,-1.191639900E-1
2.920368025E1,-9.656540871E0,8.766738892E0,-7.216362953E-1
2.922356713E1,-9.007576942E0,1.244461823E1,-2.134350300E0
2.924344119E1,-7.360921383E0,1.243838120E1,-7.672388077E0
2.926334270E1,-2.838421345E0,1.610764694E1,-1.711771393E1
2.928323577E1,7.548662186E0,2.372958374E1,-2.574999619E1
2.930313208E1,1.774115753E1,3.324726486E1,-3.376352310E1
2.932302317E1,1.239898109E1,4.115961838E1,-4.226046753E1
2.934292442E1,9.585344315E0,3.163025284E1,-5.713192368E1
2.936280921E1,1.626157951E1,8.130575180E0,-6.438723755E1
2.938266947E1,2.369454765E1,-1.158633137E1,-5.364406967E1
2.940258906E1,2.862659836E1,-1.817892647E1,-4.340904617E1
2.942246484E1,2.973458099E1,-2.274437332E1,-4.110939026E1
2.944238812E1,2.341200066E1,-3.291212463E1,-3.835091400E1
2.946228416E1,1.431619740E1,-4.063038635E1,-3.200282288E1
2.948219249E1,1.307643509E1,-4.440161896E1,-1.943192673E1
2.950202786E1,1.241410255E1,-4.171817017E1,-1.570186996E1
2.952192364E1,9.579602242E0,-3.483995438E1,-1.040642357E1
2.954181072E1,4.300252914E0,-2.536544800E1,-4.012894630E0
2.956168791E1,1.974293709E0,-1.714962006E1,-3.407030106E0
2.958160348E1,3.696394444E0,-1.168625641E1,-2.646152020E0
2.960148557E1,4.374273777E0,-6.522956848E0,-1.750701666E0
2.962137051E1,2.070495486E-2,-1.009437561E0,-1.692440987E0
2.964125817E1,-2.365970135E0,2.814635277E0,1.044379234E0
2.966123614E1,-7.015142441E-1,4.418012619E0,3.337355852E0
2.968104322E1,-7.704446316E-1,4.920080185E0,1.591900587E0
2.970093322E1,2.347124815E-1,4.943367958E0,1.412024975E0
2.972086682E1,2.629655361E0,5.395278931E0,3.724978447E0
2.974072765E1,1.027994394E0,4.520143509E0,2.409272194E0
2.976062994E1,-4.495798349E-1,4.065744400E0,1.657822847E0
2.978050869E1,1.981328964E0,2.973154068E0,3.650527716E0
2.980042630E1,1.909613132E0,1.073815346E0,2.194851637E0
2.982031265E1,-1.027548790E0,1.335546494E0,1.575556993E-1
2.984021609E1,-2.940516233E0,2.320870399E0,-2.116746902E-1
2.986010661E1,-2.908917665E0,1.828929901E0,1.504689336E0
2.987998015E1,-2.388908863E0,1.350186348E0,1.802298188E0
2.989988671E1,-1.800574780E0,8.567333221E-1,-3.814841509E-1
2.991973822E1,-1.048336267E0,1.172322273E0,-1.397803545E0
2.993961916E1,-1.056133270E0,1.703668594E0,-5.933165550E-1
2.995951525E1,-2.153607130E0,1.281167984E0,-1.944351196E-1
2.997944265E1,-2.845982552E0,8.577909470E-1,2.879071236E-2
2.999933234E1,-3.421373844E0,1.109213829E0,-2.432415485E-1
3.001921447E1,-3.494219303E0,9.829473495E-1,-8.844141960E-1
3.003908999E1,-3.211791039E0,1.468522072E0,-1.106164575E0
3.005898739E1,-3.305063248E0,1.898193359E0,-9.435738325E-1
3.007890317E1,-3.580453873E0,1.772429466E0,-4.449175596E-1
3.009878754E1,-3.867376804E0,1.733857155E0,6.146903038E-1
3.011866864E1,-3.921845913E0,1.809983253E0,1.174238682E0
3.013853416E1,-3.757768393E0,1.639167786E0,1.081027508E0
3.015845338E1,-3.212390661E0,1.423427582E0,1.072246671E0
3.017836567E1,-2.329478264E0,1.584431648E0,7.925020456E-1
3.019826687E1,-1.612839818E0,1.642951012E0,5.154366493E-1
3.021816484E1,-1.075701952E0,1.278049469E0,3.672280312E-1
3.023806218E1,-1.046597958E0,1.188578606E0,2.015510798E-1
3.025790536E1,-1.299955368E0,1.188243866E0,-1.290447712E-1
3.027781057E1,-1.256051540E0,8.649892807E-1,-3.017735481E-1
3.029767353E1,-1.177392960E0,7.015056610E-1,-2.525244951E-1
3.031758275E1,-1.090184212E0,7.281703949E-1,-2.419586182E-1
3.033744499E1,-8.339958191E-1,5.731029510E-1,-3.016406298E-1
3.035735869E1,-4.861111641E-1,3.009281158E-1,-3.825609684E-1
3.037724661E1,-1.605656147E-1,2.639837265E-1,-2.710279226E-1
3.039712650E1,6.352829933E-2,4.427518845E-1,-1.795933247E-1
3.041702640E1,4.225826263E-2,2.911109924E-1,-2.650721073E-1
3.043692963E1,-3.629207611E-3,6.411170959E-2,-2.925767899E-1
3.045680406E1,8.264422417E-2,9.698867798E-4,-2.694494724E-1
3.047669130E1,1.637258530E-1,1.547451019E-1,-3.269951344E-1
3.049657718E1,4.217727184E-1,1.588344574E-1,-3.772540092E-1
3.051645968E1,4.734663963E-1,2.495574951E-2,-3.137469292E-1
3.053636822E1,4.783091545E-1,1.070032120E-1,-2.407653332E-1
3.055624650E1,5.688073635E-1,2.203054428E-1,-2.958106995E-1
3.057613541E1,7.522652149E-1,1.233358383E-1,-3.104186058E-1
3.059603833E1,8.999280930E-1,-1.577730179E-1,-1.991183758E-1
3.061593890E1,7.896738052E-1,-1.421947479E-1,-5.727410316E-2
3.063583640E1,5.795650482E-1,1.010751724E-1,1.369094849E-2
3.065573223E1,5.725133419E-1,1.363058090E-1,1.230423450E-1
3.067563244E1,5.136959553E-1,3.736495972E-3,1.423509121E-1
3.069550666E1,6.209897995E-1,-6.638336182E-2,5.656957626E-2
3.071541692E1,1.003161669E0,-6.909275055E-2,1.069402695E-1
3.073529228E1,1.402584076E0,-1.439275742E-1,2.915544510E-1
3.075520770E1,1.383117437E0,-1.973543167E-1,3.486812115E-1
3.077506166E1,1.118449688E0,-2.073745728E-1,1.950454712E-1
3.079496614E1,1.096145630E0,-2.734975815E-1,-9.865379333E-2
3.081488187E1,1.422970057E0,-4.261064529E-1,-2.389910221E-1
3.083477015E1,1.845194340E0,-4.277105331E-1,-1.874370575E-1
3.085462494E1,1.852996826E0,-4.342427254E-1,-2.115635872E-1
3.087452661E1,1.536592007E0,-5.235962868E-1,-3.758757114E-1
3.089443536E1,1.341685295E0,-6.329817772E-1,-5.296757221E-1
3.091434124E1,1.233722687E0,-7.455134392E-1,-7.312314510E-1
3.093424708E1,1.058659077E0,-6.632995605E-1,-9.257657528E-1
3.095411301E1,9.094066620E-1,-5.787863731E-1,-8.388845921E-1
3.097397406E1,6.985025406E-1,-7.106246948E-1,-8.154199123E-1
3.099387624E1,2.024006844E-1,-9.821376801E-1,-9.673113823E-1
3.101376958E1,-3.216042519E-1,-1.307027817E0,-1.248137951E0
3.103365786E1,-1.042340279E0,-1.602138519E0,-1.432491064E0
3.105356234E1,-2.091494560E0,-1.952188492E0,-1.507156253E0
3.107342515E1,-3.397700071E0,-2.418514729E0,-1.408491492E0
3.109332281E1,-4.593451023E0,-3.215523243E0,-1.622579455E0
3.111324150E1,-5.706690788E0,-4.509165764E0,-1.900567055E0
3.113311182E1,-7.017358780E0,-5.178336143E0,-1.252646565E0
3.115298999E1,-8.601773262E0,-5.479620934E0,-2.604112625E-1
3.117291499E1,-1.063773155E1,-5.220607281E0,4.115092754E-1
3.119279952E1,-1.261328125E1,-3.055783987E0,4.767669439E-1
3.121268916E1,-1.416031647E1,1.633462906E-1,-9.521101713E-1
3.123255869E1,-1.360599232E1,2.461651325E0,8.931410313E-1
3.125246530E1,-1.149954224E1,2.286246777E0,7.420731068E0
3.127237130E1,-1.111973381E1,5.326155663E0,3.707760572E0
3.129227442E1,-7.630979538E0,9.535930634E0,-6.544212341E0
3.131210963E1,9.994428158E-1,1.217347527E1,-7.747144699E0
3.133203338E1,2.841306448E0,2.055276680E1,-5.179168701E0
3.135193499E1,2.993416548E0,2.616492462E1,-1.679745865E1
3.137181807E1,1.249959183E1,3.364908981E1,-3.876325989E1
3.139171650E1,2.028590393E1,3.533868408E1,-5.459141922E1
3.141160817E1,2.593601608E1,2.135475540E1,-6.647052002E1
3.143149640E1,3.219724274E1,2.231058598E0,-6.412139130E1
3.145135244E1,3.173382378E1,-1.178746033E1,-5.499417496E1
3.147126874E1,3.018979836E1,-2.541810417E1,-5.107742691E1
3.149121281E1,2.590150642E1,-4.265886688E1,-4.571896744E1
3.151104166E1,1.414871883E1,-4.466101074E1,-3.410748672E1
3.153093708E1,4.103613377E0,-4.074998474E1,-2.149440765E1
3.155083333E1,4.579134941E0,-3.745944977E1,-1.604411316E1
3.157072838E1,3.644510269E0,-3.383346558E1,-1.454779053E1
3.159059515E1,1.951586962E0,-2.896813583E1,-1.030872250E1
3.161050010E1,-2.380293012E-1,-2.222785950E1,-5.410726547E0
3.163040223E1,-1.053457499E0,-1.681773758E1,-3.805821419E0
3.165032499E1,1.321377397E0,-1.287428474E1,-3.754596233E0
3.167020275E1,3.282932520E0,-8.890173912E0,-3.690407753E0
3.169005504E1,2.508571386E0,-4.740808487E0,-2.691805840E0
3.170994812E1,-4.833091795E-2,-2.536479950E0,-1.513891220E-1
3.172985973E1,-1.969159842E0,-1.035356045E0,8.557639122E-1
3.174975182E1,-3.002410412E0,1.107063293E-1,-7.009599209E-1
3.176963687E1,-1.772719026E0,1.021823883E0,-5.481960773E-1
3.178953182E1,1.293831706E0,1.793349266E0,2.050437450E0
3.180942192E1,8.044822812E-1,1.812586784E0,1.700963736E0
3.182929494E1,-2.121889830E0,2.212473869E0,-5.077462196E-1
3.184919583E1,-9.373273253E-1,2.992512703E0,1.291993856E0
3.186908728E1,6.071772575E-1,3.232965469E0,3.033741951E0
3.188899463E1,-8.023975492E-1,2.297779083E0,6.512887478E-1
3.190886030E1,-2.463665009E0,2.193489075E0,-1.503182769E0
3.192878124E1,-2.414022923E0,5.694246292E-1,1.777040005E0
3.194866369E1,-1.889959216E0,-7.223329544E-1,6.098435402E0
3.196854432E1,-1.299693704E0,7.982778549E-1,3.610045195E0
3.198844036E1,-8.182477951E-2,1.638717651E0,-7.610301971E-1
3.200832041E1,1.233685017E-1,1.615708351E0,-2.231368303E0
3.202825062E1,-6.560308933E-1,1.617413521E0,-1.580541134E0
3.204811791E1,-1.489139080E0,2.135581017E0,-6.330803633E-1
3.206799406E1,-1.927254200E0,1.903661728E0,2.422621250E-1
3.208789624E1,-2.616043091E0,1.552776337E0,1.146309614E0
3.210780109E1,-2.937385798E0,1.795517921E0,1.524092913E0
3.212768421E1,-2.971012592E0,2.131698608E0,8.580343723E-1
3.214756874E1,-2.888637543E0,1.885573387E0,2.910310030E-1
3.216747952E1,-3.130423069E0,1.471502304E0,5.011789799E-1
3.218735426E1,-3.393772840E0,1.330316544E0,9.110180140E-1
3.220726463E1,-3.703987360E0,1.562300682E0,1.158196568E0
3.222717817E1,-3.787029982E0,1.640264511E0,1.425432920E0
3.224700775E1,-3.556811810E0,1.719843864E0,1.514630318E0
3.226690338E1,-2.917651176E0,1.595213890E0,1.182877779E0
3.228680822E1,-1.945315123E0,1.468573570E0,8.098362684E-1
3.230667577E1,-1.345198631E0,1.299012184E0,5.940257311E-1
3.232658833E1,-1.025323629E0,8.635702133E-1,4.837981462E-1
3.234646551E1,-8.890669346E-1,5.448389053E-1,4.552819729E-1
3.236634301E1,-9.509549141E-1,6.868553162E-1,4.229569435E-1
3.238624869E1,-8.433907032E-1,7.788362503E-1,2.350274324E-1
3.240614848E1,-5.868108273E-1,3.952064514E-1,6.252002716E-2
3.242604041E1,-4.285488129E-1,-4.808521271E-2,-9.128260612E-2
3.244591171E1,-2.667236328E-1,-1.071615219E-1,-3.317821026E-1
3.246580900E1,-3.816676140E-1,2.202320099E-1,-4.308369160E-1
3.248569447E1,-3.625690937E-1,1.109523773E-1,-3.035744429E-1
3.250557978E1,-1.991977692E-1,-1.240091324E-1,-2.160793543E-1
3.252547807E1,2.380609512E-2,-1.925687790E-1,-2.252485752E-1
3.254537036E1,7.472348213E-2,-1.517152786E-1,-1.330263615E-1
3.256528041E1,4.198834896E-1,7.869338989E-2,-1.567269564E-1
3.258519780E1,7.403755188E-1,3.789319992E-1,-1.727702618E-1
3.260504812E1,9.182806015E-1,1.563701630E-1,-9.096777439E-2
3.262496109E1,1.000802994E0,-2.045345306E-2,7.257580757E-3
3.264486156E1,1.121826887E0,-7.482528687E-2,-5.578637123E-3
3.266472051E1,1.360363483E0,-1.560993195E-1,-9.468638897E-2
3.268461916E1,1.568339348E0,-1.745319366E-1,-1.623152494E-1
3.270452228E1,1.680847168E0,-1.168260574E-1,-1.413717270E-1
3.272441192E1,1.703775167E0,-1.800231934E-1,8.522987366E-3
3.274432333E1,1.631699562E0,-3.751707077E-1,1.781533957E-1
3.276422895E1,1.695975542E0,-5.256347656E-1,3.874492645E-2
3.278410609E1,1.882704973E0,-6.449842453E-1,-3.006821871E-1
3.280395708E1,1.889217615E0,-7.627387047E-1,-4.857755899E-1
3.282389307E1,1.801108599E0,-8.783802986E-1,-5.338318348E-1
3.284375630E1,1.685292482E0,-9.796485901E-1,-5.227180719E-1
3.286363161E1,1.519492626E0,-8.700957298E-1,-5.599744320E-1
3.288351463E1,1.480530262E0,-6.589965820E-1,-7.196348906E-1
3.290343958E1,1.442403316E0,-6.082410812E-1,-7.492866516E-1
3.292333911E1,1.398592949E0,-4.649162292E-1,-8.338149786E-1
3.294321114E1,1.670726776E0,-3.308238983E-1,-1.355453014E0
3.296310395E1,2.060855389E0,-3.743858337E-1,-1.887403488E0
3.298298583E1,1.590974331E0,-5.474681854E-1,-1.794086456E0
3.300287557E1,4.714493752E-1,-5.551443100E-1,-1.349084258E0
3.302278869E1,-5.904369354E-1,-6.909613609E-1,-1.398932457E0
3.304265406E1,-1.563586235E0,-1.011802673E0,-1.689204931E0
3.306254838E1,-2.071627378E0,-1.305530548E0,-1.898776531E0
3.308246504E1,-2.045124292E0,-1.405800819E0,-2.241150618E0
3.310236036E1,-2.660604000E0,-1.885587215E0,-2.756088734E0
3.312229187E1,-3.838504076E0,-2.343402386E0,-2.295608521E0
3.314212322E1,-5.539103985E0,-2.776905775E0,-1.184030294E0
3.316201072E1,-7.167309761E0,-3.154785633E0,-2.138400078E-2
3.318190364E1,-8.860565186E0,-2.693164825E0,5.255291462E-1
3.320181249E1,-1.071386528E1,-6.136460304E-1,2.545252085E0
3.322169510E1,-1.001906872E1,-2.797178268E0,4.756847382E0
3.324156176E1,-7.908210754E0,-2.175782681E0,4.921794415E0
3.326150046E1,-8.733241081E0,6.904063225E-1,2.422722340E0
3.328137041E1,-1.066566849E1,3.829202652E0,3.347635269E-2
3.330124551E1,-9.137040138E0,8.960696220E0,-2.494576931E0
3.332123114E1,-4.894740105E0,9.371967316E0,-2.117055893E0
3.334102380E1,-2.615698814E0,1.185912895E1,-4.709873199E-1
3.336094411E1,-3.420390368E0,1.489636612E1,-6.397409439E-1
3.338081853E1,-4.214064598E0,1.852743721E1,-1.164836979E1
3.340071494E1,6.994342804E-2,2.275075531E1,-2.823365211E1
3.342058557E1,8.321528435E0,3.209664154E1,-3.575335693E1
3.344049353E1,1.744206810E1,3.411718369E1,-5.067499161E1
3.346040853E1,1.861600494E1,1.967338943E1,-6.353873444E1
3.348028051E1,1.653663254E1,4.327716827E-1,-6.181175232E1
3.350019255E1,1.913067245E1,-1.302730274E1,-5.689817047E1
3.352005046E1,2.431941414E1,-2.233255768E1,-5.379560471E1
3.353994708E1,2.595072746E1,-3.303110504E1,-4.771524811E1
3.355985661E1,1.701335144E1,-4.337233734E1,-3.596117020E1
3.357970765E1,5.303373337E0,-4.384691620E1,-2.234020805E1
3.359962567E1,5.399689674E0,-3.789110947E1,-1.489389324E1
3.361950937E1,8.402669907E0,-3.616553497E1,-1.575839615E1
3.363939978E1,6.965499878E0,-3.195067596E1,-1.288656712E1
3.365928598E1,2.915283442E0,-2.473294830E1,-6.832376957E0
3.367919109E1,1.312220812E0,-2.015923691E1,-3.772977829E0
3.369907921E1,1.463875055E0,-1.669959831E1,-3.322344542E0
3.371895030E1,1.782266974E0,-1.332725716E1,-3.252623558E0
3.373889312E1,2.114206314E0,-1.022522545E1,-2.825602531E0
3.375874051E1,9.665901661E-1,-6.799329758E0,-2.434473991E0
3.377863728E1,-1.148825526E0,-3.024147034E0,-1.905565739E0
3.379851645E1,-2.075292110E0,-4.165363312E-2,-1.080415010E0
3.381843473E1,-2.267199755E0,7.171154022E-1,-3.724153042E-1
3.383833666E1,-2.303304911E0,1.392628670E0,1.207630634E-1
3.385823187E1,-3.515538931E0,3.369775772E0,3.491740227E-1
3.387809489E1,-4.094706059E0,3.235876083E0,1.277455091E0
3.389799572E1,-2.515054226E0,2.057517052E0,3.647897243E0
3.391791291E1,-4.841362536E-1,1.993210793E0,3.989384651E0
3.393774546E1,-1.199383616E0,2.625038147E0,9.023556709E-1
3.395765030E1,-2.430632114E0,3.104692459E0,1.773030758E-1
3.397753593E1,-1.380777359E-2,3.382965088E0,5.306284904E0
3.399744952E1,1.689244032E0,2.173638344E0,4.670615196E0
3.401735182E1,5.482375622E-1,1.857249260E0,1.110541821E-1
3.403722254E1,-1.031325459E0,1.861127853E0,-1.188987732E0
3.405720171E1,-8.842709064E-1,1.333801270E0,2.133474350E0
3.407699119E1,-5.555694103E-1,1.147558212E0,4.137267113E0
3.409689781E1,-1.537166357E0,9.856710434E-1,2.709987640E0
3.411679150E1,-2.279430866E0,1.336520195E0,7.420244217E-1
3.413668932E1,-1.449862480E0,1.632511139E0,-1.278525114E0
3.415658973E1,-1.107732773E0,1.757337570E0,-1.708426714E0
3.417647635E1,-1.848691702E0,1.602848053E0,-1.027253151E0
3.419637317E1,-3.016739368E0,1.773006439E0,-2.727508545E-1
3.421626353E1,-3.613960028E0,2.094111443E0,-1.116178036E-1
3.423615583E1,-4.238380909E0,1.800395966E0,-1.866400242E-1
3.425604291E1,-4.235363007E0,1.575386047E0,-2.033655643E-1
3.427593041E1,-4.161636353E0,1.493231773E0,1.380226612E-1
3.429579228E1,-3.646277905E0,1.569398880E0,2.272272110E-1
3.431571452E1,-2.953942060E0,1.709574699E0,-3.199839592E-2
3.433559791E1,-2.606081963E0,1.572738647E0,-3.324277401E-1
3.435549244E1,-2.507507324E0,1.327683449E0,-4.845200777E-1
3.437537041E1,-1.778658509E0,1.497319221E0,-4.985065460E-1
3.439527932E1,-1.025988340E0,1.634137154E0,-6.481372118E-1
3.441516583E1,-4.777333736E-1,1.419768333E0,-5.736413002E-1
3.443506119E1,-6.320738792E-1,1.197638512E0,1.105074883E-1
3.445493442E1,-1.408740282E0,8.196516037E-1,6.386044025E-1
3.447481025E1,-1.509055138E0,6.827421188E-1,5.839962959E-1
3.449470030E1,-1.030658245E0,8.501663208E-1,3.715236187E-1
3.451460421E1,-2.148559093E-1,8.327817917E-1,-2.753149271E-1
3.453450536E1,5.545625687E-1,3.739023209E-1,-8.899410963E-1
3.455438098E1,1.147822857E0,1.152915955E-1,-9.658240080E-1
3.457430348E1,1.007828712E0,2.537164688E-1,-3.902254105E-1
3.459419895E1,3.480696678E-1,2.304668427E-1,-1.372504234E-1
3.461405369E1,1.040127277E-1,-1.114463806E-1,-1.503666639E-1
3.463394650E1,1.798141003E-1,-2.647581100E-1,-9.414625168E-2
3.465388374E1,4.835453033E-1,-2.081193924E-1,-2.534881830E-1
3.467372577E1,5.874297619E-1,-1.104021072E-1,-4.471132755E-1
3.469364911E1,5.692393780E-1,-2.373371124E-1,-4.032919407E-1
3.471354166E1,8.067574501E-1,-2.740154266E-1,-2.978509665E-1
3.473341025E1,1.005327225E0,-1.604862213E-1,-3.349903822E-1
3.475329921E1,1.135539293E0,-4.128170013E-2,-2.935134172E-1
3.477322280E1,1.224362850E0,-1.378135681E-1,-1.206357479E-1
3.479309338E1,1.125332355E0,-2.780618668E-1,1.282382011E-1
3.481297041E1,8.158617020E-1,-1.913080215E-1,3.076303005E-1
3.483290161E1,7.637202740E-1,-8.710289001E-2,3.047051430E-1
3.485276822E1,8.342528343E-1,-1.054687500E-1,3.307988644E-1
3.487264020E1,1.025615692E0,-1.738710403E-1,3.184125423E-1
3.489253489E1,1.375607014E0,-1.690568924E-1,1.671628952E-1
3.491244817E1,1.551041603E0,-2.363262177E-1,1.732709408E-1
3.493235989E1,1.633865595E0,-3.089714050E-1,3.279373646E-1
3.495223963E1,1.677973747E0,-1.861209869E-1,5.856618881E-1
3.497212317E1,1.679578066E0,-4.084968567E-2,7.095103264E-1
3.499200458E1,2.042903900E0,-2.365436554E-1,2.735378742E-1
3.501190874E1,2.631259680E0,-5.373153687E-1,-2.701201439E-1
3.503180015E1,2.909383535E0,-7.103710175E-1,-7.119746208E-1
3.505168124E1,2.521895647E0,-7.482557297E-1,-1.233027935E0
3.507157520E1,1.835590601E0,-8.997535706E-1,-1.375501633E0
3.509147317E1,8.902633190E-1,-9.088640213E-1,-1.110440135E0
3.511137932E1,2.822995186E-1,-8.988871574E-1,-1.343784451E0
3.513123583E1,8.470630646E-2,-1.015754223E0,-1.939871073E0
3.515119432E1,-1.601290703E-1,-1.247321129E0,-2.230054617E0
3.517102958E1,-3.908176422E-1,-1.332683563E0,-2.257005453E0
3.519090744E1,-7.151594162E-1,-1.440985680E0,-2.249083042E0
3.521082182E1,-1.570348740E0,-1.686441422E0,-2.104788303E0
3.523071505E1,-2.562809706E0,-1.782124996E0,-2.009757280E0
3.525056958E1,-3.359529972E0,-1.998899937E0,-1.935826540E0
3.527049734E1,-3.490752697E0,-2.829191208E0,-2.154888391E0
3.529037197E1,-3.222080708E0,-3.775610685E0,-2.269396782E0
3.531029619E1,-3.586053848E0,-4.122929573E0,-1.269944429E0
3.533012958E1,-4.485868931E0,-3.935568571E0,-5.201348662E-2
3.535004421E1,-5.290725231E0,-3.960237503E0,4.804157019E-1
3.536994796E1,-5.981469154E0,-3.897908926E0,1.095862865E0
3.538985140E1,-6.811373711E0,-3.313827276E0,1.577790022E0
3.540971682E1,-8.042111397E0,-2.912478685E0,1.478195786E0
3.542959770E1,-9.529259682E0,-1.603601456E0,1.728947639E0
3.544950541E1,-1.042204952E1,1.080580711E0,2.503816605E0
3.546940515E1,-9.876214027E0,5.400390148E0,1.836182117E0
3.548929952E1,-8.410892487E0,1.008562851E1,7.677493095E-1
3.550918234E1,-5.237899780E0,1.360376453E1,-8.274812698E-1
3.552905286E1,-1.376002073E0,1.518336487E1,-6.287180901E0
3.554895031E1,6.485559940E-1,1.963721085E1,-1.778115845E1
3.556886921E1,-9.777100086E-1,2.750073624E1,-3.070853996E1
3.558873114E1,1.494325876E0,3.050880623E1,-4.140322113E1
3.560864067E1,8.652858734E0,2.550123024E1,-5.492298126E1
3.562852468E1,1.260449409E1,1.381215954E1,-6.044947052E1
3.564843817E1,1.271162987E1,-1.279606819E-1,-5.500671005E1
3.566833520E1,1.408583450E1,-1.397526836E1,-5.163272095E1
3.568822692E1,1.970879364E1,-2.339439774E1,-5.006815338E1
3.570810432E1,2.491558266E1,-3.106095886E1,-4.693642426E1
3.572799270E1,1.915387726E1,-4.007434845E1,-3.861713409E1
3.574789432E1,9.616818428E0,-3.749085236E1,-2.414849854E1
3.576777301E1,6.971837521E0,-3.396454239E1,-1.334970188E1
3.578763718E1,9.208517075E0,-3.205012131E1,-1.093555737E1
3.580754338E1,8.839361191E0,-2.934426880E1,-9.804320335E0
3.582743020E1,5.895475388E0,-2.504136658E1,-6.888283253E0
3.584734109E1,2.619595766E0,-1.987355232E1,-4.235448360E0
3.586723650E1,2.029847383E0,-1.525611496E1,-2.576918602E0
3.588711312E1,3.138587475E0,-1.199074936E1,-2.301513433E0
3.590699286E1,1.806386590E0,-9.852783203E0,-2.196750164E0
3.592687645E1,-1.695101261E-1,-7.806026936E0,-1.214733362E0
3.594679754E1,6.366720796E-1,-5.349225044E0,-2.993621826E-1
3.596666301E1,9.189916849E-1,-3.320049763E0,-1.034164429E0
3.598657390E1,-5.641159415E-1,-1.149854183E0,-2.287875891E0
3.600646692E1,-1.113178015E0,1.134418488E0,-6.719038486E-1
3.602633848E1,6.826937199E-1,2.490318298E0,1.823467493E0
3.604625718E1,7.138515115E-1,3.008253098E0,5.988953114E-1
3.606615161E1,-8.424387574E-1,3.353511810E0,-1.735682368E0
3.608600843E1,-2.670806646E-1,4.849587440E0,1.903834343E-1
3.610593572E1,7.284563780E-1,5.466781616E0,3.429741859E0
3.612580557E1,-7.570248842E-1,4.072950363E0,1.734308481E0
3.614570254E1,-2.069949627E0,2.922234535E0,-1.402950883E0
3.616558848E1,-1.496833801E0,2.479084969E0,-5.979228020E-1
3.618548421E1,-1.183680296E0,2.033227921E0,1.382651329E0
3.620536197E1,-2.217029572E0,1.529365540E0,8.138788939E-1
3.622527348E1,-3.368083715E0,9.261837006E-1,3.394017220E-1
3.624517807E1,-3.989920139E0,1.089674950E0,1.859199882E0
3.626502583E1,-3.872346401E0,1.118725777E0,2.601696014E0
3.628492385E1,-3.107223272E0,1.296841621E0,1.943953633E0
3.630484286E1,-2.730144978E0,1.973610878E0,1.245225549E0
3.632471541E1,-2.975363493E0,2.419452667E0,8.740705252E-1
3.634459614E1,-3.069277763E0,2.475753784E0,6.402425766E-1
3.636449656E1,-3.015876293E0,2.452781677E0,7.435168028E-1
3.638436254E1,-3.105557442E0,2.132617950E0,7.890385389E-1
3.640427682E1,-3.054141521E0,1.557366371E0,7.258476019E-1
3.642419926E1,-2.821736336E0,8.957834244E-1,8.121263981E-1
3.644404088E1,-2.524803877E0,3.891096115E-1,5.011303425E-1
3.646394614E1,-2.209979773E0,5.261840820E-1,-3.184211254E-2
3.648382999E1,-1.584972978E0,7.462167740E-1,-4.830529690E-1
3.650372364E1,-1.396016836E0,6.029138565E-1,-5.262336731E-1
3.652361744E1,-1.395625830E0,1.202173233E-1,-2.509441376E-1
3.654352275E1,-1.221268415E0,-1.478538513E-1,-1.660151482E-1
3.656337801E1,-6.404287815E-1,1.257686615E-1,-2.892371416E-1
3.658328067E1,-1.647372246E-1,4.593000412E-1,-4.156905413E-1
3.660319911E1,3.363254070E-1,3.885049820E-1,-2.596410513E-1
3.662306296E1,5.390162468E-1,-2.407360077E-2,4.961633682E-2
3.664298801E1,4.811491966E-1,-2.216215134E-1,3.600158691E-1
3.666285989E1,4.147503376E-1,1.361627579E-1,2.782586813E-1
3.668273666E1,5.119798183E-1,3.316125870E-1,6.808626652E-2
3.670266395E1,4.783082008E-1,3.105926514E-2,2.977204323E-2
3.672254307E1,3.689661026E-1,-2.687444687E-1,1.286008358E-1
3.674244239E1,5.821526051E-1,-1.641130447E-1,1.418838501E-1
3.676236062E1,8.818070889E-1,-5.940437317E-3,1.194610596E-1
3.678225390E1,9.059214592E-1,-1.209592819E-1,2.752642632E-1
3.680210593E1,7.255613804E-1,-2.659235001E-1,2.894184589E-1
3.682200676E1,5.063872337E-1,-2.075386047E-1,1.169006824E-1
3.684190182E1,3.158333302E-1,-6.130218506E-3,1.838684082E-2
3.686178624E1,1.151080132E-1,5.834102631E-2,1.549160480E-1
3.688168291E1,5.363225937E-2,-4.781246185E-2,2.006008625E-1
3.690154036E1,2.102618217E-1,-1.795663834E-1,-1.299834251E-2
3.692142994E1,2.363395691E-1,1.645088196E-3,-1.823902130E-1
3.694136583E1,1.834039688E-1,3.547096252E-2,-1.987825632E-1
3.696123676E1,3.018493652E-1,-1.257076263E-1,-1.060640812E-1
3.698117020E1,5.373566151E-1,-1.622877121E-1,-1.144170761E-3
3.700101676E1,4.989209175E-1,-3.718090057E-2,8.680343628E-3
3.702091291E1,3.232114315E-1,-8.228111267E-2,-2.735567093E-2
3.704081577E1,3.112235069E-1,-1.274471283E-1,6.910562515E-3
3.706068739E1,5.731465816E-1,-1.977539062E-1,2.648375034E-1
3.708057046E1,8.610033989E-1,-1.928625107E-1,4.310624599E-1
3.710047551E1,1.125272512E0,-2.793951035E-1,5.781838894E-1
3.712037525E1,1.298838377E0,-5.254621506E-1,4.617719650E-1
3.714026775E1,1.620859861E0,-7.881269455E-1,1.204767227E-1
3.716016192E1,1.963870049E0,-7.940340042E-1,-9.134554863E-2
3.718002734E1,2.415121555E0,-5.887546539E-1,-2.196333408E-1
3.719993817E1,2.583118677E0,-6.533045769E-1,-6.976686716E-1
3.721983411E1,2.236443520E0,-7.629265785E-1,-1.637886047E0
3.723972083E1,1.864084244E0,-1.004547119E0,-1.909145474E0
3.725959572E1,1.612510204E0,-1.452232838E0,-9.966573715E-1
3.727949687E1,1.342002392E0,-1.857412815E0,-1.975317001E-1
3.729936958E1,5.360927582E-1,-1.967898846E0,-7.456558943E-1
3.731925202E1,-1.117334366E-1,-2.349909782E0,-2.016723871E0
3.733919057E1,-1.191455126E0,-2.615380764E0,-2.634121656E0
3.735904614E1,-2.409691095E0,-2.343417168E0,-2.333253145E0
3.737893656E1,-2.887186527E0,-2.292234421E0,-2.572931051E0
3.739886083E1,-3.990698576E0,-3.413940430E0,-2.892731667E0
3.741874182E1,-5.845336914E0,-4.473282814E0,-1.179068565E0
3.743861661E1,-7.781571865E0,-5.342789650E0,3.881838322E-1
3.745851530E1,-9.554005623E0,-6.178295135E0,1.285674214E0
3.747842156E1,-1.100536633E1,-6.144469261E0,1.568953156E0
3.749832510E1,-1.189659500E1,-4.982357025E0,1.070034623E0
3.751822541E1,-1.223284435E1,-3.404849768E0,6.629692316E-1
3.753806395E1,-1.147725201E1,-1.519427538E0,3.716139793E-1
3.755796343E1,-1.062808228E1,2.052855730E0,-3.080725670E-1
3.757785723E1,-9.471172333E0,3.704164028E0,-1.899554253E0
3.759775588E1,-6.422981739E0,3.367545843E0,-4.766438007E0
3.761763942E1,5.352859497E-1,7.603966713E0,-7.397460938E0
3.763754421E1,8.295751572E0,1.637004662E1,-1.112122154E1
3.765742213E1,8.132909775E0,2.341659355E1,-2.204564857E1
3.767729499E1,7.150112152E0,2.891633034E1,-3.785836792E1
3.769722067E1,1.035908699E1,2.680108643E1,-5.182284164E1
3.771707775E1,1.321843052E1,1.779204750E1,-6.129264069E1
3.773700265E1,1.390457916E1,2.127170563E0,-6.375750351E1
3.775690067E1,1.533742237E1,-1.164227962E1,-5.856923294E1
3.777677395E1,1.873083496E1,-2.386815643E1,-5.399447632E1
3.779665458E1,2.086380959E1,-3.549425888E1,-4.947439194E1
3.781655041E1,1.596810436E1,-4.605986023E1,-4.236281967E1
3.783643968E1,7.328066826E0,-4.380876160E1,-2.911388016E1
3.785633843E1,6.444446087E0,-4.222862625E1,-1.859953690E1
3.787623833E1,6.864029884E0,-4.154311371E1,-1.380092239E1
3.789613156E1,3.361134768E0,-3.764686584E1,-1.040690613E1
3.791598989E1,-2.726820946E0,-3.066417503E1,-6.553326607E0
3.793591062E1,-5.344738007E0,-2.402603149E1,-4.215420723E0
3.795576812E1,-3.433661938E0,-1.781211281E1,-2.313485146E0
3.797569265E1,-5.162191391E-2,-1.263075924E1,-1.674498081E0
3.799558952E1,2.310387135E0,-9.366445541E0,-5.727775097E-1
3.801547192E1,2.816762447E0,-6.733866215E0,1.907860279E0
3.803536744E1,2.175021648E0,-3.960358620E0,3.329685688E0
3.805523343E1,8.207463026E-1,-1.549552441E0,2.367508888E0
3.807514958E1,1.613467932E0,-3.074703217E-1,1.214710236E0
3.809504317E1,1.629951835E0,8.248920441E-1,1.114170551E0
3.811493932E1,5.623105764E-1,5.439176559E-1,2.097237349E0
3.813479062E1,-5.781602859E-2,-9.136576653E-1,3.830440760E0
3.815470301E1,-1.290669918E0,6.156082153E-1,3.913672686E0
3.817461057E1,-2.015014172E0,1.090053558E0,1.107701302E0
3.819447942E1,-1.386147380E0,8.350467682E-1,6.533241272E-2
3.821437853E1,-1.212822914E0,1.135275841E0,2.355086803E-1
3.823429421E1,-1.467541695E0,1.171694756E0,-6.896188259E-1
3.825425348E1,-1.673237443E0,1.021995544E0,-1.021020174E0
3.827404234E1,-1.408345461E0,7.342634201E-1,-7.513585091E-1
3.829392947E1,-1.439436555E0,5.019731522E-1,-4.673168659E-1
3.831381906E1,-2.195447683E0,1.167459488E0,-3.923156261E-1
3.833370843E1,-2.794553757E0,1.575961113E0,-1.785984039E-1
3.835361546E1,-3.331588507E0,1.352280617E0,4.472286701E-1
3.837351130E1,-3.940919399E0,1.334822655E0,4.714949131E-1
3.839339291E1,-4.334671021E0,1.604258537E0,2.544155121E-1
3.841327598E1,-4.335800171E0,1.733676910E0,7.523961067E-1
3.843317406E1,-4.234141827E0,1.416987419E0,1.191895247E0
3.845305083E1,-3.595090389E0,1.348903656E0,9.673237801E-1
3.847296963E1,-2.825049400E0,1.268998146E0,4.808413982E-1
3.849284635E1,-2.002054453E0,1.165728569E0,3.751859665E-1
3.851273249E1,-1.195831537E0,1.219983101E0,3.884916306E-1
3.853263192E1,-9.601240158E-1,1.013169289E0,2.387118340E-2
3.855250260E1,-1.302592516E0,6.110172272E-1,-1.738309860E-1
3.857242161E1,-1.643813372E0,3.199853897E-1,-7.567882538E-2
3.859233780E1,-1.721533179E0,2.343482971E-1,5.852460861E-3
3.861221984E1,-1.370500803E0,1.597766876E-1,-3.535056114E-2
3.863207187E1,-1.176830053E0,8.697223663E-2,-8.847403526E-2
3.865197567E1,-1.214505196E0,6.233310699E-2,-3.843975067E-1
3.867185728E1,-8.936954737E-1,4.790973663E-2,-6.552315950E-1
3.869178786E1,-4.294219017E-1,2.536201477E-2,-7.099001408E-1
3.871166327E1,-5.518815517E-1,4.694938660E-2,-7.468285561E-1
3.873156004E1,-3.496118784E-1,2.449865341E-1,-5.584558249E-1
3.875143447E1,-2.583888769E-1,3.615398407E-1,-3.464756012E-1
3.877132228E1,-3.034479618E-1,3.467674255E-1,-1.306982040E-1
3.879127218E1,5.178904533E-2,2.219638824E-1,1.167063713E-1
3.881112796E1,3.034529686E-1,1.089010239E-1,2.839784622E-1
3.883098978E1,8.494906425E-1,1.084289551E-1,2.025840282E-1
3.885090932E1,1.195655107E0,9.356307983E-2,1.480026245E-1
3.887078822E1,1.126293898E0,-3.013229370E-2,3.530154228E-1
3.889069432E1,8.712372780E-1,-2.139587402E-1,2.978525162E-1
3.891056031E1,6.182312965E-1,-5.561542511E-2,2.147674561E-1
3.893045103E1,7.449679375E-1,2.496433258E-2,1.469435692E-1
3.895037343E1,1.073178530E0,-1.261997223E-1,2.298295498E-1
3.897028478E1,1.276506662E0,-3.861131668E-1,3.751695156E-1
3.899018275E1,1.444988012E0,-4.630651474E-1,3.611381054E-1
3.901000859E1,1.967089176E0,-4.886817932E-1,2.017388344E-1
3.902990010E1,2.449111938E0,-5.236129761E-1,1.407926083E-1
3.904982484E1,2.651967764E0,-6.403675079E-1,1.479744911E-1
3.906969682E1,2.675049782E0,-5.544357300E-1,-1.704812050E-2
3.908958744E1,2.954989195E0,-4.703350067E-1,-3.752844334E-1
3.910946244E1,3.379850864E0,-7.859849930E-1,-7.195345163E-1
3.912935510E1,3.666130066E0,-1.343327045E0,-8.668364286E-1
3.914924218E1,3.870093346E0,-1.557985783E0,-1.106084228E0
3.916915921E1,3.585521698E0,-1.421505451E0,-1.535252810E0
3.918901963E1,3.008014917E0,-1.291800499E0,-1.931918383E0
3.920894984E1,2.326318502E0,-1.331866741E0,-2.209428549E0
3.922881348E1,1.570565939E0,-1.473603249E0,-2.206618309E0
3.924872744E1,3.865089417E-1,-1.740230560E0,-1.825708628E0
3.926858989E1,-3.352537155E-1,-2.319599152E0,-2.301417112E0
3.928853114E1,1.614632607E-1,-2.433316708E0,-3.674937963E0
3.930840202E1,-4.094085693E-1,-2.712632179E0,-4.736322403E0
3.932830598E1,-1.909667730E0,-2.448465824E0,-4.484003067E0
3.934821510E1,-3.935856342E0,-2.777905464E0,-2.920690298E0
3.936806072E1,-6.146815777E0,-2.887012482E0,-2.051564932E0
3.938794994E1,-7.660036564E0,-2.539105415E0,-2.042502880E0
3.940787077E1,-8.406936646E0,-3.207305908E0,-1.712983251E0
3.942772062E1,-9.424644470E0,-3.015751362E0,-1.247785211E0
3.944763900E1,-1.117338371E1,2.075271606E-1,-1.474370003E0
3.946753265E1,-1.271702957E1,2.636235714E0,-2.356989384E0
3.948742369E1,-1.237360954E1,2.839254141E0,-2.919237614E0
3.950730906E1,-1.162265396E1,4.311232567E0,-5.235747337E0
3.952721869E1,-1.144155693E1,1.057839203E1,-8.796272278E0
3.954709077E1,-1.023342896E1,1.818948555E1,-1.010987282E1
3.956699780E1,-8.722201347E0,2.617333603E1,-1.190616131E1
3.958690208E1,-8.048348427E0,3.402304459E1,-1.933115768E1
3.960677458E1,-3.477981687E-1,3.863320541E1,-2.818718338E1
3.962665327E1,4.683550835E0,3.805265427E1,-3.750164795E1
3.964653171E1,1.086569667E0,3.231150818E1,-5.339226532E1
3.966644973E1,5.549521446E-1,1.937117386E1,-6.627751923E1
3.968632666E1,6.744707108E0,-1.159645081E0,-6.782136536E1
3.970623801E1,1.399048615E1,-1.457469368E1,-5.887867737E1
3.972613187E1,1.912076378E1,-2.346741867E1,-5.076797104E1
3.974599385E1,1.761388206E1,-3.528326416E1,-4.438569641E1
3.976590015E1,9.287377357E0,-3.653684998E1,-3.115558243E1
3.978577223E1,4.597109795E0,-3.432786942E1,-2.118986511E1
3.980567984E1,5.296759605E0,-3.055091858E1,-1.685062790E1
3.982557124E1,7.169195175E0,-2.802354050E1,-1.364168739E1
3.984546307E1,7.246568680E0,-2.509563446E1,-1.045921707E1
3.986534916E1,5.118329525E0,-2.075456047E1,-6.653629303E0
3.988522864E1,2.157151699E0,-1.619749641E1,-3.885288715E0
3.990514390E1,1.250261545E0,-1.265422630E1,-1.698904514E0
3.992502281E1,2.147932768E0,-1.006182671E1,-1.744330883E0
3.994490515E1,2.944518328E0,-8.003615379E0,-2.454505682E0
3.996480208E1,3.903885365E0,-4.818090439E0,-5.428628922E-1
3.998467843E1,2.590777636E0,-1.342615604E0,1.393930912E0
4.000456697E1,6.146579981E-2,4.517049789E-1,2.930188179E-2
4.002446353E1,1.733346105E0,7.351741791E-1,-6.120641232E-1
4.004439614E1,3.242374182E0,2.023320198E0,1.024508715E0
4.006428010E1,5.217028856E-1,3.515943527E0,1.305309057E0
4.008420208E1,-1.449074864E0,5.013230324E0,7.699759007E-1
4.010405437E1,8.682464957E-1,6.360432625E0,3.078594446E0
4.012394072E1,2.817041874E-1,4.917103767E0,3.231368780E0
4.014382650E1,-1.287929058E0,4.080128670E0,6.907646656E-1
4.016372124E1,-1.769619703E0,4.004325867E0,-6.035581827E-1
4.018362166E1,-7.691723108E-1,2.977319717E0,6.993167400E-1
4.020347708E1,6.832919121E-1,8.034744263E-1,2.054245949E0
4.022336583E1,-1.607397437E0,1.236977577E0,4.182185173E0
4.024327353E1,-4.414989948E0,1.747946739E0,3.682447195E0
4.026322713E1,-4.389854431E0,8.907260895E-1,9.835461378E-1
4.028304770E1,-3.065300226E0,1.236468315E0,-2.516832352E-1
4.030296682E1,-1.970717549E0,1.995683670E0,6.269038916E-1
4.032286369E1,-2.217525959E0,1.799869537E0,1.281304955E0
4.034274869E1,-3.054618359E0,1.333351135E0,8.479667902E-1
4.036261447E1,-3.188533783E0,1.359817505E0,3.297238350E-1
4.038250749E1,-3.140568972E0,1.294860840E0,2.008155584E-1
4.040238536E1,-2.968078613E0,8.338804245E-1,1.350588799E-1
4.042229796E1,-2.815761805E0,6.319646835E-1,-1.681482792E-2
4.044219838E1,-2.652493954E0,7.436971664E-1,-2.351272106E-1
4.046206593E1,-2.371025562E0,6.730031967E-1,-3.166279793E-1
