"Time (s)","Linear Acceleration x (m/s^2)","Linear Acceleration y (m/s^2)","Linear Acceleration z (m/s^2)"
6.991766400E-2,-8.287822008E-1,-2.028903961E-1,-1.227185726E-1
8.980021600E-2,-5.366395712E-1,-3.093595505E-1,9.910821915E-3
1.096849030E-1,-3.664174080E-1,-2.569417953E-1,-5.178689957E-2
1.296023510E-1,-1.547958851E-1,-1.869840622E-1,-1.206901073E-1
1.494703200E-1,-5.897307396E-2,-1.965961456E-1,-1.794812679E-1
1.693692780E-1,-3.376531601E-2,-1.698007584E-1,-1.881284714E-1
1.892311010E-1,-1.617670059E-3,-8.681392670E-2,-1.483066082E-1
2.091474030E-1,-3.746652603E-2,-1.423797607E-1,-1.623194218E-1
2.290161530E-1,1.434731483E-2,-2.010726929E-1,-1.532442570E-1
2.489266740E-1,5.083107948E-2,-2.227401733E-2,-1.065144539E-1
2.688099550E-1,2.377533913E-2,9.600734711E-2,-1.459457874E-1
2.886853720E-1,5.046820641E-2,1.262702942E-1,-1.876215935E-1
3.086043820E-1,-5.415081978E-2,1.696929932E-1,-1.636354923E-1
3.284733410E-1,6.333017349E-2,1.831159592E-1,-1.929326057E-1
3.483614660E-1,1.225917339E-1,1.560382843E-1,-1.821446419E-2
3.682703720E-1,-9.138584137E-2,1.511335373E-1,1.133487225E-1
3.881645390E-1,-2.580244541E-1,1.116657257E-1,4.089117050E-3
4.080620390E-1,-9.974074364E-2,7.327461243E-2,-1.983165741E-2
4.279466740E-1,3.088760376E-2,4.844474792E-2,1.719150543E-1
4.478065700E-1,-2.322912216E-3,-2.206039429E-2,1.567478180E-1
4.677053200E-1,-7.354855537E-2,-3.069686890E-2,-1.946520805E-2
4.875911010E-1,-2.453763485E-1,1.775836945E-2,-7.823157310E-2
5.075121430E-1,-2.404501438E-1,-5.187320709E-2,-1.848387718E-2
5.274046430E-1,-1.081657410E-1,-5.244922638E-2,8.802485466E-2
5.472536010E-1,-1.179428101E-1,5.449867249E-2,1.203238964E-1
5.671652160E-1,-1.553537846E-1,1.319236755E-1,4.490756989E-2
5.870777680E-1,-2.313840389E-1,1.923761368E-1,1.764202118E-2
6.069505800E-1,-4.000105858E-1,3.418521881E-1,3.093140125E-1
6.268519350E-1,-5.867044926E-1,4.519720078E-1,4.796304703E-1
6.467159970E-1,-8.835184574E-1,7.709426880E-1,3.219208717E-1
6.666344350E-1,-1.061491966E0,1.080283165E0,3.613309860E-1
6.865374550E-1,-1.477994680E0,1.375873566E0,1.046817780E0
7.064471950E-1,-2.228115082E0,1.919505119E0,1.460989475E0
7.262880280E-1,-3.018252134E0,2.548143387E0,2.176069260E0
7.461564140E-1,-3.646904230E0,3.146167755E0,3.131998539E0
7.660755800E-1,-3.879838705E0,3.228548050E0,3.137719154E0
7.859469870E-1,-4.084454060E0,3.359759808E0,2.342064381E0
8.058514660E-1,-4.336315155E0,4.366580009E0,1.284010887E0
8.257179240E-1,-3.993581295E0,6.202378750E0,-8.323945999E-1
8.456263100E-1,-4.336492062E0,7.972057343E0,-4.477630615E0
8.655258930E-1,-6.021151066E0,8.431913376E0,-8.012550354E0
8.854118820E-1,-8.474644661E0,9.983932495E0,-8.467845917E0
9.052683930E-1,-1.124965572E1,1.125857830E1,-8.684198380E0
9.251929760E-1,-9.558311462E0,8.122364044E0,-1.077173710E1
9.450999550E-1,-8.112138748E0,-3.782935143E-1,-1.068243217E1
9.649667260E-1,-7.511573792E0,-1.202480221E1,-6.759739876E0
9.848953200E-1,-7.879305840E0,-2.656657028E1,-2.421505451E0
1.004753445E0,-7.518622398E0,-3.708111191E1,6.676201820E-1
1.024630893E0,-5.739498138E-2,-2.988963890E1,2.365022659E0
1.044534330E0,4.226193428E0,-1.611237717E1,-4.427469254E0
1.064456518E0,-7.925455570E0,-1.327391243E1,-3.976451635E0
1.084297664E0,-4.711478710E0,-2.377383471E0,1.822525024E0
1.104192664E0,-1.646666527E0,-2.177621126E0,-3.797377110E0
1.124099955E0,-7.826156616E-1,-6.344292164E0,-4.430631161E0
1.143959591E0,-2.570076942E0,-9.791799545E0,-3.097041607E0
1.163830580E0,-4.811617851E0,-1.075934124E1,-1.712609768E0
1.183742091E0,-1.342488766E0,-9.294923782E0,-2.607673645E0
1.203627560E0,2.475296259E0,-7.474325180E0,-4.552306175E0
1.223534643E0,4.215332031E0,-5.887825966E0,-4.130576134E0
1.243467403E0,2.647247791E0,-3.981297493E0,-2.841726780E0
1.263312195E0,-4.118394852E-1,1.670837402E-3,-2.574616432E0
1.283192716E0,-1.786618948E0,2.235089302E0,-2.739614010E0
1.303100893E0,-1.662780046E0,1.864124775E0,-3.604109764E0
1.322951882E0,-1.914947271E0,2.342484474E0,-4.255931377E0
1.342878705E0,-1.248299122E0,4.690769196E0,-1.867479801E0
1.362736778E0,7.098994255E-1,5.300196171E0,-1.248650551E-1
1.382636570E0,4.897546768E-1,3.775276661E0,-7.513718605E-1
1.402560216E0,-7.258360386E-1,2.668373108E0,-2.260041237E-1
1.422453185E0,-4.032588005E-1,3.766181946E0,3.147298336E0
1.442398914E0,-2.055482864E-1,3.204655647E0,5.024020195E0
1.462178601E0,-1.908823848E0,2.003404617E0,4.169460773E0
1.482101153E0,-5.683487892E0,2.195262909E0,3.327944040E0
1.501980007E0,-7.810526848E0,3.147989273E0,3.669961691E0
1.521848810E0,-6.159604549E0,2.982696533E0,4.135662079E0
1.541765112E0,-4.041697502E0,2.237026215E0,3.808368206E0
1.561629070E0,-3.278671265E0,1.430294991E0,2.463732004E0
1.581522560E0,-1.952382088E0,3.674316406E-1,1.601856232E0
1.601424539E0,-1.230483055E0,9.430789948E-2,3.030088663E0
1.621324539E0,-1.903380513E0,4.761896133E-1,3.016896725E0
1.641226518E0,-1.828043580E0,5.155792236E-1,8.116700649E-1
1.661096362E0,-1.178214908E0,5.956916809E-1,-4.591392279E-1
1.680972299E0,-8.042222261E-1,7.101001740E-1,-7.570979595E-1
1.700858757E0,-5.922319889E-1,5.689334869E-1,-5.563726425E-1
1.720772091E0,-4.420531988E-1,2.267618179E-1,-1.890218258E-1
1.740646674E0,-5.905038118E-1,6.274604797E-2,-3.191883564E-1
1.760573705E0,-4.412221909E-1,-1.126527786E-1,-4.395570755E-1
1.780470997E0,9.295225143E-3,-2.166624069E-1,-1.732451916E-1
1.800346257E0,4.140949249E-2,-3.584995270E-1,-1.748752594E-2
1.820195060E0,-2.893213034E-1,-2.604761124E-1,-1.724023819E-1
1.840105789E0,-2.969864607E-1,-1.187896729E-2,-4.108729362E-1
1.860001257E0,-1.167321205E-2,1.043529510E-1,-2.594487667E-1
1.879865685E0,9.771037102E-2,1.473331451E-2,-8.036780357E-2
1.899768080E0,-9.482765198E-2,-6.555938721E-2,-2.170896530E-2
1.919642924E0,-2.278598547E-1,-9.912872314E-2,1.263959408E-1
1.939561726E0,-1.549069881E-1,-2.797985077E-2,-3.941059113E-4
1.959427924E0,-4.268550873E-2,1.950197220E-1,-1.419978142E-1
1.979328914E0,1.334700584E-1,7.296466827E-2,-1.772050858E-1
1.999216414E0,2.190053463E-1,-2.549076080E-2,-1.232984066E-1
2.019120372E0,4.699182510E-2,-1.738071442E-2,-1.602616310E-1
2.038991570E0,4.951429367E-2,-7.607460022E-2,-7.071709633E-2
2.058870789E0,1.465039253E-1,-5.065631866E-2,-9.371042252E-3
2.078758653E0,1.702728271E-1,-1.452522278E-1,-6.559967995E-2
2.098665685E0,1.609995365E-1,-2.388048172E-1,-2.613162994E-2
2.118545737E0,1.959226131E-1,-1.810731888E-1,1.424312592E-2
2.138432195E0,1.993088722E-1,-1.629638672E-1,-1.886265278E-1
2.158320320E0,2.132406235E-1,-1.388082504E-1,-2.300636768E-1
2.178195424E0,2.302479744E-1,-1.422033310E-1,-1.851396561E-1
2.198119851E0,8.038330078E-2,-6.850242615E-2,-2.249131203E-1
2.217991726E0,-2.802658081E-2,-8.692169189E-2,-2.072622776E-1
2.237867820E0,-4.122161865E-2,-1.465377808E-1,-4.824185371E-2
2.257789122E0,-3.303623199E-2,-1.172981262E-1,-2.356052399E-3
2.277649799E0,-9.476137161E-2,-5.492496490E-2,-4.878020287E-2
2.297557143E0,-5.890655518E-2,-6.212520599E-2,-1.813852787E-1
2.317469122E0,1.004571915E-1,-9.870910645E-2,-2.556920052E-1
2.337371101E0,1.686115265E-1,1.003360748E-2,-1.114292145E-1
2.357226414E0,7.676720619E-2,4.205608368E-2,-1.090760231E-1
2.377128757E0,-9.381055832E-3,-1.303634644E-1,-9.220457077E-2
2.396989903E0,1.498229504E-1,-2.209453583E-1,-1.861572266E-2
2.416891987E0,3.956916332E-1,4.073143005E-3,-3.939008713E-2
2.436771674E0,3.468015194E-1,1.609897614E-1,-1.670851707E-1
2.456677716E0,1.708583832E-1,4.118728638E-2,-1.452932358E-1
2.476593757E0,1.144201756E-1,-1.135168076E-1,6.187844276E-2
2.496496153E0,5.113244057E-2,-7.840442657E-2,6.568884850E-2
2.516381101E0,-3.338479996E-2,3.772163391E-2,2.147722244E-2
2.536254643E0,-1.188006401E-1,6.957054138E-3,-1.295566559E-3
2.556135007E0,-4.969358444E-2,-7.304859161E-2,-4.566597939E-2
2.576010841E0,1.519341469E-1,-3.616333008E-3,-2.533841133E-2
2.595908028E0,2.605018616E-1,-1.488304138E-2,-7.989358902E-2
2.615797507E0,1.887266636E-1,-8.953762054E-2,-6.199717522E-2
2.635693080E0,1.187155247E-1,-1.721048355E-1,6.187486649E-2
2.655561987E0,1.455471516E-1,-1.126375198E-1,-3.238773346E-2
2.675477872E0,1.608428955E-1,1.599502563E-2,-1.638631821E-1
2.695358601E0,6.148433685E-2,-2.202987671E-3,-1.168222427E-1
2.715228341E0,-3.145599365E-2,-1.498508453E-1,-5.488967896E-2
2.735139799E0,4.153013229E-3,-1.762504578E-1,-2.037048340E-3
2.755028757E0,-8.157110214E-2,-3.418636322E-2,-1.185963154E-1
2.774929747E0,-1.645159721E-1,1.078109741E-1,-8.106064796E-2
2.794819122E0,-1.426272392E-1,6.510353088E-2,4.535913467E-2
2.814687299E0,-2.620577812E-1,-2.811431885E-2,9.969711304E-3
2.834624018E0,-4.786424637E-1,1.558017731E-1,-7.594227791E-2
2.854498289E0,-7.303879261E-1,4.138240814E-1,-1.773018837E-1
2.874397039E0,-8.020612001E-1,3.991641998E-1,-2.816176414E-2
2.894246414E0,-9.014562368E-1,4.054307938E-1,3.254477978E-1
2.914126466E0,-1.232481599E0,5.893831253E-1,4.234776497E-1
2.934052039E0,-1.483343601E0,7.280712128E-1,3.714416027E-1
2.953944695E0,-1.574210405E0,7.894697189E-1,4.911041260E-1
2.973801049E0,-1.808381319E0,8.807964325E-1,8.721776009E-1
2.993701466E0,-2.475554228E0,1.116888046E0,1.454229116E0
3.013591466E0,-2.918099403E0,1.436749458E0,1.970790625E0
3.033485164E0,-1.686651111E0,1.679125786E0,3.128124237E0
3.053414174E0,-1.838612437E0,2.429337502E0,4.358538628E0
3.073275789E0,-5.022776127E0,4.287273407E0,4.385445118E0
3.093136362E0,-8.887029648E0,7.989383698E0,2.239612579E0
3.113041778E0,-1.168915558E1,1.100065422E1,-2.038329601E0
3.132938914E0,-1.256248283E1,1.252097321E1,-6.333289146E0
3.152834747E0,-1.259686470E1,1.322319889E1,-1.000711536E1
3.172700632E0,-1.103406620E1,1.150576019E1,-1.136579323E1
3.192619851E0,-6.927215576E0,6.690775871E0,-8.590374947E0
3.212507039E0,-5.328258514E0,-1.145582199E0,-6.700006962E0
3.232418341E0,-1.048144531E1,-1.173402882E1,-6.125012875E0
3.252266778E0,-1.029507446E1,-2.388356972E1,-1.003967762E0
3.272154903E0,-3.035051346E0,-3.707117844E1,2.505345345E0
3.292052091E0,1.416420460E0,-3.541295624E1,8.808374405E-1
3.311942039E0,5.061647892E0,-2.012150574E1,-2.214272022E0
3.331841935E0,-5.623360634E0,-1.215011311E1,-9.293106079E0
3.351725060E0,-6.120531559E0,-3.680687666E0,5.304737091E-1
3.371599122E0,-2.465762615E0,3.982141972E0,8.894729614E-2
3.391481153E0,-1.675711393E0,-3.172048092E0,-5.057147026E0
3.411407612E0,-1.708875895E0,-5.996745110E0,-2.440858364E0
3.431290112E0,-5.000380039E0,-9.871379852E0,-1.986611366E0
3.451179487E0,-4.127231598E0,-1.083672237E1,-2.529465675E0
3.471081205E0,-9.241566062E-2,-1.180653667E1,-1.095738411E0
3.490946362E0,2.610486269E0,-1.252237511E1,-1.248693466E0
3.510830841E0,1.892889261E0,-8.669251442E0,-9.441471100E-1
3.530724382E0,8.748927116E-1,-4.284361362E0,-1.047206879E0
3.550634955E0,-6.296520233E-1,-2.299367428E0,-2.072610855E0
3.570548810E0,-1.408491135E0,3.967990875E-1,-2.053939819E0
3.590416987E0,-2.526372194E0,1.774414062E0,-2.197825432E0
3.610296882E0,-3.160748482E0,2.691706181E0,-3.030855656E0
3.630175216E0,-2.170169592E0,3.162026405E0,-3.016054630E0
3.650063028E0,-7.649126053E-1,3.120010376E0,-2.413069248E0
3.669967195E0,-1.054663658E-1,3.305640221E0,-8.392136097E-1
3.689847820E0,-1.217360258E0,3.692324638E0,5.424425602E-1
3.709733132E0,-2.568655014E0,3.289879799E0,1.844641924E0
3.729620320E0,-2.972244024E0,2.188951492E0,2.515061617E0
3.749505372E0,-2.683660984E0,1.598446846E0,2.049226522E0
3.769422039E0,-3.643256187E0,1.877184868E0,2.535132885E0
3.789269799E0,-5.917149544E0,2.043107033E0,2.831401825E0
3.809165632E0,-7.125060558E0,2.981072426E0,3.527161598E0
3.829097664E0,-6.811836243E0,3.545888901E0,3.985212564E0
3.848962039E0,-5.567713737E0,2.867979050E0,2.782897234E0
3.868830945E0,-4.468392849E0,1.888025284E0,1.041440248E0
3.888751726E0,-2.835852146E0,8.658590317E-1,1.140980721E0
3.908628237E0,-1.669988155E0,3.676033020E-1,2.574800014E0
3.928522716E0,-1.442322016E0,4.202594757E-1,2.397824049E0
3.948428966E0,-1.198273659E0,2.674570084E-1,8.164153099E-1
3.968322299E0,-5.801011324E-1,1.321077347E-1,-5.010598898E-1
3.988184070E0,8.520245552E-2,2.880115509E-1,-6.047282219E-1
4.008067716E0,1.212487221E-1,8.659572601E-1,-2.207696438E-1
4.027974435E0,-4.087102413E-1,8.829193115E-1,-2.666122913E-1
4.047864695E0,-6.330353022E-1,7.106389999E-1,-5.424379110E-1
4.067752143E0,-2.127768993E-1,4.014806747E-1,-7.761174440E-1
4.087642820E0,4.106738567E-1,3.074684143E-1,-6.168920994E-1
4.107497195E0,8.519620895E-1,4.133977890E-1,-2.836179733E-1
4.127400320E0,6.344211102E-1,2.498731613E-1,-2.145457268E-2
4.147278341E0,-2.070546150E-2,-9.976387024E-3,2.331206799E-1
4.167175112E0,-5.570476055E-1,-3.374519348E-1,2.089886665E-1
4.187070060E0,-2.153922319E-1,-3.718271255E-1,-1.612997055E-1
4.206940945E0,2.925848961E-1,-4.762172699E-2,-3.138182163E-1
4.226844747E0,4.444780350E-1,1.176261902E-2,-1.820745468E-1
4.246727247E0,5.141441822E-1,-2.835760117E-1,-2.908766270E-1
4.266624070E0,4.479606152E-1,-3.179149628E-1,-2.429645061E-1
4.286554018E0,2.789525986E-1,-8.752155304E-2,-1.827771664E-1
4.306453341E0,3.145735264E-1,-8.026695251E-2,-3.397507668E-1
4.326303810E0,3.762452602E-1,-1.979799271E-1,-2.511105537E-1
4.346170424E0,3.061935902E-1,-2.129573822E-1,-6.318283081E-2
4.366151049E0,1.884722710E-1,-1.387481689E-1,-8.680725098E-2
4.385980737E0,1.588025093E-1,-1.689815521E-1,-1.918468475E-1
4.405879487E0,2.565848827E-1,-1.893606186E-1,-1.081347466E-1
4.425741257E0,4.821279049E-1,-1.973485947E-1,-2.606368065E-2
4.445648601E0,5.004138947E-1,-1.904201508E-1,-3.318428993E-2
4.465521935E0,4.110476971E-1,-3.171634674E-2,-4.169273376E-2
4.485422768E0,3.644723892E-1,-6.962966919E-2,-1.273193359E-1
4.505331518E0,3.952026367E-1,-2.080173492E-1,-3.755521774E-2
4.525200424E0,4.609055519E-1,-2.780694962E-1,-7.053327560E-2
4.545104122E0,5.210659504E-1,-1.443614960E-1,-1.403086185E-1
4.564976987E0,3.979856968E-1,-1.403636932E-1,-7.873010635E-2
4.584883601E0,2.489261627E-1,-2.452411652E-1,2.483201027E-2
4.604752403E0,1.482496262E-1,-1.748886108E-1,1.612870693E-1
4.624680320E0,8.521318436E-2,-6.860160828E-2,5.963826180E-2
4.644566518E0,4.190897942E-2,-3.474903107E-2,-1.560840607E-1
4.664444851E0,8.092260361E-2,-4.398345947E-2,-1.830723286E-1
4.684319278E0,2.253344059E-1,-4.532241821E-2,-9.555697441E-2
4.704227195E0,2.318069935E-1,5.612564087E-2,-3.760147095E-2
4.724092976E0,5.428600311E-2,1.149501801E-1,-7.782340050E-2
4.743992247E0,-8.716654778E-2,2.289485931E-2,-5.095005035E-4
4.763872195E0,-2.031102180E-1,-1.777935028E-2,9.164047241E-2
4.783781205E0,-1.915647984E-1,3.101158142E-2,-2.206277847E-2
4.803666153E0,-6.238603592E-2,1.357755661E-1,-1.424455643E-1
4.823540007E0,1.847195625E-2,4.439067841E-2,-1.296100616E-1
4.843466049E0,-1.867341995E-2,-9.941196442E-2,-4.354047775E-2
4.863360476E0,-1.641147137E-1,-6.695556641E-2,-4.767179489E-2
4.883233445E0,-2.123763561E-1,4.713916779E-2,-6.313157082E-2
4.903103132E0,-2.385044098E-1,-3.096580505E-3,-3.598237038E-2
4.923014435E0,-2.342066765E-1,-9.791851044E-2,-3.022336960E-2
4.942921987E0,-9.427785873E-2,-3.663063049E-2,-1.701350212E-1
4.962788914E0,2.355289459E-2,4.527950287E-2,-2.240242958E-1
4.982669382E0,-5.789995193E-2,-6.171035767E-2,-1.887872219E-1
5.002559382E0,-1.489300728E-1,-1.892652512E-1,-4.648733139E-2
5.022470789E0,-1.551058292E-1,-1.598358154E-1,-4.390025139E-2
5.042363757E0,-8.337521553E-2,-6.882286072E-2,-2.397913933E-1
5.062226830E0,-6.315779686E-2,-1.630992889E-1,-2.472555637E-1
5.082132768E0,-2.540159225E-1,-3.599367142E-1,-2.198910713E-1
5.102003028E0,-5.247970819E-1,-4.437446594E-1,-3.299736977E-1
5.121911518E0,-5.577057600E-1,-3.166875839E-1,-3.372566700E-1
5.141795320E0,-4.898092747E-1,4.200077057E-2,-1.119344234E-1
5.161682924E0,-8.116147518E-1,3.282222748E-1,3.039636612E-1
5.181563862E0,-1.408633471E0,5.702848434E-1,4.699165821E-1
5.201460372E0,-1.754260540E0,1.010156631E0,6.094172001E-1
5.221352091E0,-2.287015676E0,2.030287743E0,1.695719957E0
5.241240685E0,-2.787859678E0,2.834933281E0,2.421329260E0
5.261136778E0,-2.109184504E0,2.888508797E0,2.634341478E0
5.280998757E0,-7.965290546E-1,3.171520233E0,2.958742380E0
5.300901414E0,-1.690162063E0,4.260086060E0,3.334016323E0
5.320782820E0,-3.466152191E0,5.246307373E0,3.165440083E0
5.340691101E0,-4.520488739E0,6.587150574E0,2.326140881E0
5.360566153E0,-5.210670948E0,7.827312469E0,-3.299508095E-1
5.380498237E0,-5.859704494E0,8.071428299E0,-3.938981295E0
5.400386570E0,-5.537481785E0,8.466432571E0,-5.535851955E0
5.420249695E0,-4.781088352E0,9.707933426E0,-6.330412865E0
5.440139018E0,-5.412967682E0,9.770626068E0,-9.102113724E0
5.460010424E0,-8.047902107E0,6.984930992E0,-1.194418526E1
5.479893028E0,-1.000803375E1,4.677271843E-1,-1.146249866E1
5.499808028E0,-1.010942459E1,-1.025996208E1,-4.563623428E0
5.519669487E0,-9.428775787E0,-2.313999748E1,2.266414165E0
5.539580841E0,-6.180568695E0,-3.410908508E1,-1.336174011E-1
5.559467455E0,-2.550804138E0,-3.435378265E1,-1.838270664E0
5.579381414E0,4.306058407E0,-2.052389336E1,-1.559270382E0
5.599249226E0,-1.498107910E0,-8.669886589E0,-2.732898235E0
5.619144226E0,-6.904105663E0,-8.975834846E0,-8.177337646E-1
5.639031518E0,-2.136276484E0,-8.171022415E0,3.337244034E0
5.658913132E0,-6.524536610E-1,-1.232199097E1,-3.933295727E0
5.678830997E0,-3.801760674E-1,-1.156025696E1,-4.031243324E0
5.698678028E0,-3.299472332E-1,-9.460532188E0,-3.941507339E-1
5.718579539E0,-2.046869755E0,-8.508927345E0,-6.876449585E-1
5.738478966E0,-1.238043785E0,-5.616741180E0,-2.071153164E0
5.758393080E0,-6.500244141E-3,-1.727453232E0,-3.369533539E0
5.778287976E0,-4.056334496E-1,5.329608917E-2,-4.166805267E0
5.798139591E0,-2.634713173E0,3.116655350E-1,-4.383576393E0
5.818031987E0,-4.383822441E0,1.917542458E0,-3.889191389E0
5.837931101E0,-3.691338539E0,3.058613300E0,-3.829043388E0
5.857811882E0,-2.872917652E0,3.777904510E0,-2.070067883E0
5.877716935E0,-2.257418633E0,4.071346760E0,3.091912270E-1
5.897590789E0,-1.881503582E0,3.339527130E0,5.549516678E-1
5.917497455E0,-1.606909752E0,2.934255600E0,6.657629013E-1
5.937403549E0,-1.700900674E0,3.079253197E0,2.629386663E0
5.957262195E0,-2.317471981E0,2.887810707E0,3.255405426E0
5.977168289E0,-2.804022074E0,2.601389885E0,2.016820431E0
5.997040320E0,-3.194585085E0,2.974478722E0,2.046866894E0
6.016931882E0,-3.671003342E0,2.854026794E0,2.877619743E0
6.036830320E0,-4.091010094E0,2.532585144E0,3.063608646E0
6.056701518E0,-4.188108444E0,2.452128410E0,2.271232367E0
6.076600007E0,-3.658767223E0,1.950109482E0,1.061629534E0
6.096508289E0,-2.223571301E0,1.652914047E0,1.137594461E0
6.116383080E0,-1.665691495E0,1.558474541E0,1.514132977E0
6.136255216E0,-1.770786047E0,1.256611824E0,1.075149059E0
6.156146518E0,-2.187319517E0,9.598970413E-1,3.775143623E-1
6.176055372E0,-1.605087042E0,3.301620483E-1,4.867253304E-1
6.195919330E0,-5.126566887E-1,-2.095127106E-2,1.163452148E0
6.215835685E0,2.425563335E-2,8.345222473E-2,7.074525356E-1
6.235713289E0,3.035378456E-2,3.404102325E-1,-2.732779980E-1
6.255596987E0,-2.420561314E-1,5.142068863E-1,-1.183359504E0
6.275501726E0,-3.760674000E-1,7.399520874E-1,-8.557435274E-1
6.295384903E0,-6.785820723E-1,7.440719604E-1,-2.510857582E-2
6.315255216E0,-8.339835405E-1,5.516624451E-1,-2.400105000E-1
6.335155893E0,-4.846576452E-1,5.921859741E-1,-5.369498730E-1
6.355030164E0,-1.290628910E-1,4.140148163E-1,-1.129972935E-1
6.374940424E0,1.703853607E-1,2.599639893E-1,2.611591816E-1
6.394824018E0,1.440234184E-1,2.464084625E-1,1.289625168E-1
6.414708966E0,-2.608580589E-1,2.867832184E-1,-1.536941528E-2
6.434648966E0,-3.471875191E-1,2.167806625E-1,-2.681910992E-1
6.454512560E0,5.267727375E-2,-6.951522827E-2,-1.827461720E-1
6.474436830E0,2.611865997E-1,-2.352762222E-1,4.261732101E-2
6.494284903E0,2.780472040E-1,-8.918762207E-2,-1.304042339E-1
6.514171778E0,4.321957827E-1,-3.746223450E-2,-3.760926723E-1
6.534082351E0,7.378621101E-1,-1.673574448E-1,-3.868215084E-1
6.553957195E0,7.903095484E-1,-1.640748978E-1,-1.040658951E-1
6.573863810E0,8.045102358E-1,-7.647228241E-2,-4.779982567E-2
6.593722560E0,9.618185759E-1,-1.208086014E-1,-1.167006493E-1
6.613604174E0,1.122903824E0,-2.675714493E-1,4.615879059E-2
6.633513132E0,9.615906477E-1,-3.756771088E-1,1.599776745E-1
6.653464851E0,7.137269974E-1,-2.805566788E-1,-3.328371048E-2
6.673301257E0,5.603817701E-1,-2.127323151E-1,-1.065521240E-1
6.693191153E0,6.127041578E-1,-3.241462708E-1,-1.798396111E-1
6.713099955E0,7.331683636E-1,-4.230442047E-1,-1.402935982E-1
6.732946935E0,6.126804352E-1,-3.922271729E-1,-2.312018871E-1
6.752868289E0,5.090352297E-1,-2.306375504E-1,-7.286906242E-2
6.772726257E0,5.830048323E-1,-3.146886826E-1,-6.128454208E-2
6.792630528E0,7.842528820E-1,-3.053045273E-1,-1.229047775E-3
6.812554695E0,8.224476576E-1,-2.311143875E-1,-7.831883430E-2
6.832464955E0,7.484062910E-1,-2.177734375E-1,-1.526296139E-1
6.852293028E0,7.312527895E-1,-1.146144867E-1,5.618810654E-3
6.872172976E0,4.534289837E-1,-2.508735657E-2,1.980471611E-2
6.892089070E0,2.348778248E-1,4.360198975E-2,-1.214373112E-1
6.911947976E0,-3.843510151E-2,4.908561707E-2,-7.795882225E-2
6.931856466E0,-1.944236755E-1,3.155517578E-2,-3.744673729E-2
6.951773185E0,-2.025556564E-1,1.373062134E-1,-1.200551987E-1
6.971670476E0,-1.639795303E-1,1.304216385E-1,-2.256681919E-1
6.991549018E0,-1.722637415E-1,2.482509613E-2,-2.058641911E-1
7.011444330E0,-2.240407467E-1,-3.259849548E-2,-2.488679886E-1
7.031315424E0,-3.936196566E-1,9.459495544E-2,-1.268408298E-1
7.051185268E0,-6.248469353E-1,7.370376587E-2,-9.930300713E-2
7.071109747E0,-7.655235529E-1,7.040500641E-2,-1.470675468E-1
7.090979174E0,-9.526233077E-1,1.592321396E-1,-2.220673561E-1
7.110876414E0,-1.152753592E0,2.825651169E-1,-2.611062527E-1
7.130765997E0,-1.382480145E0,3.142499924E-1,-1.656603813E-2
7.150649799E0,-1.667901278E0,4.096031189E-1,1.715955734E-1
7.170545060E0,-2.110205650E0,6.979084015E-1,3.724436760E-1
7.190484903E0,-2.689855337E0,1.027749062E0,5.862014294E-1
7.210302872E0,-2.975267887E0,1.313988686E0,9.770073891E-1
7.230211570E0,-2.785010338E0,1.424496651E0,1.326377869E0
7.250102455E0,-2.320634604E0,1.252437592E0,9.607849121E-1
7.269972716E0,-1.655207753E0,1.775323868E0,1.492682695E0
7.289859695E0,-2.368680239E0,3.038676262E0,2.780033588E0
7.309764695E0,-4.125962734E0,4.375222206E0,2.605856895E0
7.329644070E0,-5.816244125E0,5.654561043E0,9.554529190E-1
7.349523914E0,-6.425225258E0,7.744308472E0,-5.866222382E-1
7.369425372E0,-6.293632984E0,9.798793793E0,-2.503438950E0
7.389342976E0,-5.863038063E0,1.173576260E1,-4.929510593E0
7.409221726E0,-7.726495266E0,1.257580376E1,-8.643100739E0
7.429108341E0,-1.091640472E1,1.064480400E1,-1.147009087E1
7.448994018E0,-9.990137100E0,7.314200401E0,-8.728593826E0
7.468870320E0,-7.255790234E0,-2.467875957E0,-5.593950272E0
7.488771362E0,-8.463773727E0,-1.878117561E1,-3.851038456E0
7.508669903E0,-8.265406609E0,-3.474977112E1,-1.988823891E0
7.528533653E0,-2.936532497E0,-4.365879059E1,-2.654647827E-1
7.548457351E0,5.671025276E0,-3.107516098E1,-1.614837170E0
7.568350685E0,3.119233608E0,-1.228237915E1,-6.290777683E0
7.588232768E0,-1.126540375E1,-9.607385635E0,-3.948448181E0
7.608117403E0,-3.126531124E0,-6.641234398E0,5.873639107E0
7.628013445E0,4.954905510E-1,-1.201694107E1,-4.011418819E0
7.647891205E0,4.414080381E-1,-1.139010334E1,-6.221220970E0
7.667768237E0,1.770203948E0,-8.331717491E0,-6.763877869E-1
7.687688862E0,-1.382678032E0,-7.757803917E0,5.421352386E-2
7.707555841E0,-1.533221006E0,-5.025751114E0,-2.686586380E-1
7.727434747E0,-4.048487544E-1,-3.369627237E0,-9.545087814E-1
7.747343132E0,-8.410623074E-1,-1.371919394E0,-1.602591515E0
7.767221987E0,-2.104426861E0,-1.850605011E-3,-2.139073372E0
7.787129226E0,-2.842461586E0,1.848684788E0,-2.912391663E0
7.807002091E0,-3.236387491E0,3.282160282E0,-3.305102348E0
7.826890997E0,-3.662297726E0,3.555788040E0,-1.761997461E0
7.846780112E0,-2.971993446E0,3.849565029E0,-4.453229904E-2
7.866661778E0,-1.728585482E0,4.330287457E0,-2.316780090E-1
7.886573601E0,-1.833811760E0,4.054311752E0,-1.335769415E0
7.906466518E0,-2.659065247E0,4.348984718E0,-1.729903221E-1
7.926381935E0,-2.722682476E0,4.715546608E0,1.738582850E0
7.946245476E0,-3.039518356E0,4.264048576E0,1.683007717E0
7.966122664E0,-3.458302975E0,3.336195946E0,2.498316765E-1
7.986025737E0,-3.810955048E0,2.752466202E0,6.550979614E-1
8.005900424E0,-3.553329945E0,2.487469673E0,1.812918544E0
8.025807195E0,-2.945067883E0,2.224565506E0,1.944087267E0
8.045693757E0,-2.868434668E0,1.868372917E0,1.600915670E0
8.065567455E0,-2.827886581E0,1.449576378E0,1.555237412E0
8.085478601E0,-2.213420391E0,1.154770851E0,1.503324509E0
8.105330945E0,-1.456083536E0,9.476327896E-1,1.689151764E0
8.125228862E0,-1.536566973E0,8.430051804E-1,1.828815699E0
8.145111674E0,-9.904427528E-1,8.895301819E-2,1.260609865E0
8.165023393E0,-2.773463726E-1,3.319568634E-1,1.464968681E0
8.184890528E0,-6.708076000E-1,6.097116470E-1,1.139183283E0
8.204780320E0,-6.048722267E-1,5.331087112E-1,1.398108006E-1
8.224670528E0,-4.331088066E-2,4.694442749E-1,-4.946864843E-1
8.244580685E0,3.050184250E-1,4.317951202E-1,-1.002131939E0
8.264457716E0,6.095170975E-1,4.229936600E-1,-1.342550993E0
8.284393757E0,3.880989552E-1,4.325895309E-1,-8.705073595E-1
8.304240424E0,-4.244041443E-1,8.981418610E-2,-3.539110422E-1
8.324138549E0,-5.538543463E-1,-3.095674515E-1,-1.616001129E-3
8.344027351E0,-2.599290609E-1,-5.248870850E-1,2.094705105E-1
8.363907716E0,2.463340759E-2,-3.984270096E-1,9.117579460E-2
8.383816257E0,2.962589264E-3,-1.400194168E-1,-5.253195763E-2
8.403682560E0,5.247426033E-2,-1.025323868E-1,-7.719922066E-2
8.423607507E0,1.745707989E-1,-2.153205872E-1,-2.745509148E-2
8.443480112E0,4.284830093E-1,-2.186307907E-1,-1.484727859E-2
8.463370320E0,5.080673695E-1,-1.770687103E-2,-2.604763508E-1
8.483253862E0,5.808718204E-1,1.105365753E-1,-3.786692619E-1
8.503161518E0,7.353248596E-1,-5.944728851E-2,-2.338538170E-1
8.523038289E0,6.057183743E-1,-4.758453369E-2,-1.032953262E-1
8.542956257E0,4.521420002E-1,8.588504791E-2,-9.651517868E-2
8.562833810E0,3.710551262E-1,-1.338186264E-1,-2.208924294E-2
8.582708132E0,4.123377800E-1,-3.118724823E-1,1.178710461E-1
8.602590424E0,4.576022625E-1,-2.588768005E-1,1.183800697E-1
8.622527143E0,4.777874947E-1,-1.009349823E-1,-2.975392342E-2
8.642458080E0,5.709331036E-1,-7.770919800E-2,-8.664703369E-2
8.662247768E0,6.190805435E-1,-1.752119064E-1,-2.254009247E-3
8.682144330E0,5.567042828E-1,-1.092243195E-1,-2.103853226E-2
8.702027924E0,3.710353374E-1,-3.875541687E-2,-6.915664673E-2
8.721943028E0,2.775185108E-1,-1.237688065E-1,-7.673645020E-2
8.741843914E0,3.404960632E-1,-2.176828384E-1,-6.357717514E-2
8.761696205E0,2.288820744E-1,-1.152286530E-1,-5.054640770E-2
8.781606674E0,5.976462364E-2,-2.356529236E-2,-6.279397011E-2
8.801486153E0,-4.501938820E-2,-4.953098297E-2,-3.481626511E-2
8.821410476E0,7.752418518E-3,-5.427932739E-2,1.101434231E-1
8.841251935E0,6.688475609E-2,3.687000275E-2,9.346866608E-2
8.861152716E0,9.620285034E-2,1.013031006E-1,-1.328399181E-1
8.881053341E0,-1.853895187E-2,3.264808655E-2,-1.967368126E-1
8.900938393E0,-1.004974842E-1,-3.402233124E-2,-1.037044525E-1
8.920831622E0,-7.551360130E-2,-5.340957642E-2,4.478311539E-2
8.940733080E0,-7.035517693E-2,-2.294540405E-2,-3.080511093E-2
8.960620632E0,-1.717991829E-1,-2.191829681E-2,-1.851408482E-1
8.980496518E0,-2.969707251E-1,-1.070156097E-1,-2.111971378E-1
9.000444955E0,-4.033827782E-1,-1.079597473E-1,-8.352231979E-2
9.020292664E0,-4.089462757E-1,2.394104004E-2,-1.053307056E-1
9.040161987E0,-3.893936872E-1,7.910919189E-2,-1.614873409E-1
9.060084122E0,-4.066433907E-1,1.201152802E-2,-1.194410324E-1
9.079956362E0,-3.917051554E-1,1.304721832E-2,-2.018783092E-1
9.099844330E0,-3.524769545E-1,2.536678314E-1,-3.215348721E-1
9.119734435E0,-4.901546240E-1,3.730449677E-1,-2.363879681E-1
9.139632247E0,-7.345521450E-1,3.885068893E-1,-5.677437782E-2
9.159522143E0,-1.125340581E0,5.232410431E-1,9.971022606E-2
9.179429226E0,-1.428191662E0,7.939062119E-1,3.357121944E-1
9.199286049E0,-1.673135161E0,1.028363228E0,7.823114395E-1
9.219165164E0,-1.971546412E0,1.440448761E0,1.032416821E0
9.239081830E0,-2.628440142E0,1.775675774E0,1.537960052E0
9.258959903E0,-3.399731398E0,2.371983528E0,2.909013987E0
9.278832299E0,-4.291049957E0,3.178046227E0,3.593000650E0
9.298749851E0,-4.801417828E0,3.921991348E0,4.267395020E0
9.318626518E0,-5.538341045E0,5.739544868E0,3.710059166E0
9.338538966E0,-7.995687485E0,8.146887779E0,2.617331505E0
9.358423705E0,-1.029583359E1,1.245472336E1,1.469464779E0
9.378315528E0,-1.159667015E1,1.603719330E1,-1.740095615E0
9.398181778E0,-1.097650814E1,1.656268501E1,-8.665502548E0
9.418100372E0,-8.976676941E0,1.210083199E1,-1.382967567E1
9.437961778E0,-7.935351849E0,1.956317425E0,-1.323996735E1
9.457858080E0,-9.563071251E0,-1.474582863E1,-9.505116463E0
9.477752924E0,-1.582478142E1,-3.514501953E1,-2.623791218E0
9.497637768E0,-1.271471214E1,-4.523534775E1,3.479496956E0
9.517506778E0,2.192780495E0,-3.159595108E1,2.553414345E0
9.537432612E0,7.087976456E0,-1.638189697E1,-7.961259365E0
9.557294903E0,-1.334946060E1,-1.222396851E1,-3.320136070E0
9.577194226E0,-2.744419813E0,-2.866457224E0,8.028426170E0
9.597100789E0,-2.607853413E0,-6.441872120E0,-3.614605904E0
9.616984851E0,-2.453358173E0,-8.454803467E0,-7.825352669E0
9.636860320E0,8.349224329E-1,-8.479357719E0,-3.317881584E0
9.656744382E0,-1.237842917E0,-9.996013641E0,-2.205723286E0
9.676647820E0,-1.649439692E0,-8.340551376E0,-5.448780060E-1
9.696538028E0,-3.578715324E-1,-7.067975998E0,-2.555465698E-1
9.716460268E0,-4.915006161E-1,-6.760004520E0,-2.204225540E0
9.736320372E0,-3.934209347E-1,-3.490715027E0,-2.755884171E0
9.756208445E0,-9.479522705E-1,1.137572765E0,-1.896100044E0
9.776100580E0,-1.962909937E0,2.492722034E0,-2.270878792E0
9.795976882E0,-2.182139635E0,1.195210457E0,-2.769211769E0
9.815872195E0,-1.229214430E0,1.609527111E0,-1.965607882E0
9.835771362E0,-3.209686279E-1,4.374716759E0,-4.984815121E-1
9.855673289E0,-1.352587700E0,4.925970554E0,3.133018017E-1
9.875553757E0,-2.149281979E0,3.508207321E0,1.139962435E0
9.895424018E0,-1.415798187E0,3.214673042E0,1.992922544E0
9.915293862E0,-1.289283752E0,3.792985916E0,2.313938379E0
9.935227039E0,-2.435782433E0,4.002966881E0,1.923603058E0
9.955090580E0,-3.611340284E0,3.403164864E0,1.757094622E0
9.974992091E0,-3.977900982E0,3.420872688E0,3.068307877E0
9.994875737E0,-3.696086407E0,2.863825798E0,2.279392242E0
1.001477912E1,-2.829807281E0,2.476856232E0,1.132153988E0
1.003466120E1,-2.033450842E0,2.339430809E0,1.342234850E0
1.005458313E1,-1.275479794E0,1.849513054E0,1.405252934E0
1.007447730E1,-1.149060726E0,1.359560013E0,1.079808950E0
1.009435860E1,-1.373320937E0,1.029389381E0,8.040018082E-1
1.011418860E1,-1.144203186E0,-2.293148041E-1,6.648471355E-1
1.013412183E1,-1.375571728E0,-7.220621109E-1,2.255411863E0
1.015400058E1,-1.944808841E0,-2.272500992E-1,2.505573273E0
1.017387845E1,-1.628166676E0,2.949142456E-1,3.308992386E-1
1.019374667E1,-8.643050194E-1,3.655138016E-1,-1.072420239E0
1.021364120E1,-2.427492142E-1,1.262006760E-1,-1.184238195E0
1.023353876E1,2.071266174E-1,2.150793076E-1,-6.846780777E-1
1.025345636E1,1.548185349E-1,3.834524155E-1,-3.143010139E-1
1.027333813E1,-5.002443790E-1,2.374668121E-1,-1.833600998E-1
1.029320845E1,-5.314824581E-1,-4.316902161E-2,2.028918266E-2
1.031313121E1,-1.514520645E-1,-8.229255676E-2,-1.649785042E-2
1.033297714E1,1.266081333E-1,2.727508545E-3,-1.742939949E-1
1.035286370E1,3.758957386E-1,7.143020630E-2,-1.180722713E-1
1.037279970E1,2.790534496E-1,1.218500137E-1,-2.592182159E-2
1.039268048E1,1.568582058E-1,1.272954941E-1,1.186778545E-1
1.041258068E1,2.293112278E-1,-6.852149963E-3,2.128865719E-1
1.043246839E1,3.609466553E-1,-1.386537552E-1,4.134345055E-2
1.045236225E1,4.304361343E-1,1.030588150E-1,-1.520605087E-1
1.047221850E1,5.588662624E-1,1.987590790E-1,-3.265352249E-1
1.049213694E1,6.637239456E-1,1.055393219E-1,-2.471785545E-1
1.051202714E1,6.304485798E-1,-3.858470917E-2,4.918909073E-2
1.053191324E1,6.205098629E-1,-1.010808945E-1,9.265851974E-2
1.055180157E1,7.184879780E-1,-9.213161469E-2,3.085851669E-3
1.057168324E1,7.308075428E-1,-2.292108536E-1,1.706647873E-2
1.059156006E1,7.674486637E-1,-3.012952805E-1,1.122534275E-1
1.061144761E1,8.734772205E-1,-3.046092987E-1,-5.504345894E-2
1.063136860E1,8.730547428E-1,-3.804235458E-1,-3.566639423E-1
1.065126928E1,6.677138805E-1,-5.538272858E-1,-3.065304756E-1
1.067112188E1,4.704747200E-1,-5.182571411E-1,-2.526764870E-1
1.069102844E1,2.371654510E-1,-3.386821747E-1,-2.408132553E-1
1.071090594E1,1.057980061E-1,-3.043642044E-1,-9.855341911E-2
1.073081131E1,9.884524345E-2,-2.524347305E-1,7.613730431E-2
1.075068990E1,6.283569336E-2,-1.106529236E-1,5.382370949E-2
1.077058188E1,-2.491998672E-2,-3.391361237E-2,1.960277557E-2
1.079045626E1,-4.966926575E-2,-9.238338470E-2,-1.355338097E-2
1.081040855E1,1.410877705E-1,-1.908340454E-1,-1.224496365E-1
1.083025574E1,2.603082657E-1,-2.212038040E-1,-1.091656685E-1
1.085015209E1,2.502903938E-1,-1.430377960E-1,-1.403527260E-1
1.087004105E1,1.546158791E-1,-1.516819000E-2,-2.889561653E-1
1.088992397E1,2.889091969E-1,-1.099138260E-1,-2.699201107E-1
1.090979975E1,3.739883900E-1,-2.377614975E-1,-1.155560017E-1
1.092969032E1,1.539366245E-1,-1.510839462E-1,-1.336140633E-1
1.094956990E1,-1.604766846E-1,-2.669811249E-2,-9.113740921E-2
1.096948766E1,-3.119306564E-1,-1.461887360E-2,-3.619003296E-2
1.098942459E1,-3.821396828E-1,9.893894196E-2,-9.458231926E-2
1.100924496E1,-6.729800701E-1,3.929948807E-1,-1.653716564E-1
1.102915464E1,-1.105360746E0,5.570611954E-1,-6.258654594E-2
1.104905204E1,-1.581771493E0,5.621280670E-1,3.024888039E-2
1.106893147E1,-2.039274693E0,6.276664734E-1,4.721641541E-2
1.108880141E1,-2.382425785E0,6.628122330E-1,4.899692535E-2
1.110870845E1,-2.734823227E0,6.405687332E-1,-9.040212631E-2
1.112859068E1,-3.003792286E0,8.669748306E-1,-5.695915222E-2
1.114849157E1,-2.946902990E0,1.014223099E0,2.153425217E-1
1.116838214E1,-2.548430443E0,1.039181709E0,1.138509512E0
1.118827157E1,-2.230191708E0,1.150040627E0,1.895276785E0
1.120813954E1,-2.097239971E0,1.692273140E0,1.542848587E0
1.122805537E1,-1.831595063E0,2.726464272E0,8.375005722E-1
1.124793970E1,-2.922894478E0,3.461974144E0,1.044640541E0
1.126781225E1,-3.701694489E0,3.982807159E0,1.318314552E0
1.128773131E1,-3.451990843E0,4.913952827E0,1.002535343E0
1.130760777E1,-4.118659019E0,5.839606285E0,5.290884972E-1
1.132748553E1,-4.421310425E0,6.620893002E0,-4.345178604E-1
1.134740194E1,-4.369107246E0,7.192473412E0,-2.047770977E0
1.136726011E1,-4.312025070E0,7.562846184E0,-4.020040035E0
1.138715803E1,-4.171813011E0,8.574594498E0,-3.646715879E0
1.140705287E1,-3.429105043E0,8.781784058E0,-3.085712910E0
1.142692647E1,-1.253691435E0,7.310767174E0,-4.339646339E0
1.144684173E1,-7.980110645E-1,3.745220661E0,-7.713028431E0
1.146670553E1,-3.914326668E0,-2.681035995E0,-8.518851280E0
1.148660787E1,-8.085707664E0,-1.189803791E1,-3.555438995E0
1.150652761E1,-7.097732067E0,-2.397997475E1,1.529312134E0
1.152644615E1,-1.860187531E0,-3.375522614E1,-4.751873016E-2
1.154629485E1,2.851575375E0,-3.413682556E1,-3.712350368E0
1.156616756E1,7.785797119E-2,-2.103767967E1,-2.332690239E0
1.158607657E1,-7.842864513E0,-8.332221985E0,1.599804878E0
1.160592714E1,-5.618575573E0,-9.505061150E0,-6.973285675E-1
1.162585141E1,-3.709583282E-1,-1.105392361E1,-4.436594486E0
1.164573938E1,-1.240396619E0,-1.231197929E1,-4.802510738E0
1.166559886E1,-2.746024728E-1,-1.026099586E1,-3.153693676E0
1.168552308E1,1.276330233E0,-8.595145226E0,-1.743523121E0
1.170541485E1,5.408983231E-1,-6.511838913E0,-1.101731300E0
1.172530287E1,2.767181396E-1,-3.177826643E0,-1.047140598E0
1.174518496E1,2.592251301E-1,-1.155172825E0,-1.734070778E0
1.176506365E1,-8.765847683E-1,-3.331847191E-1,-2.256116867E0
1.178496470E1,-1.344297647E0,2.294321060E0,-1.759037495E0
1.180485720E1,-1.533577204E0,3.250199318E0,-2.555379868E-1
1.182472053E1,-1.805238008E0,2.134229660E0,9.619903564E-2
1.184462766E1,-1.641972303E0,2.907324791E0,-1.285724640E-1
1.186455183E1,-1.853735685E0,4.888253689E0,1.409185886E0
1.188444037E1,-2.504238367E0,4.140276432E0,1.697656393E0
1.190430970E1,-3.287947178E0,3.105725288E0,2.935798168E-1
1.192417037E1,-3.206101179E0,2.908963203E0,6.193675995E-1
1.194408194E1,-3.056204796E0,3.620837212E0,2.331711054E0
1.196395058E1,-3.183280706E0,3.850221634E0,2.516163111E0
1.198384001E1,-4.742194176E0,3.530150414E0,1.670689583E0
1.200374594E1,-5.121835232E0,2.827375412E0,1.579671144E0
1.202362532E1,-3.794267416E0,2.435902596E0,2.118508577E0
1.204350506E1,-2.851429224E0,2.116530418E0,1.764416456E0
1.206343527E1,-2.712051630E0,1.771120071E0,1.340839386E0
1.208327678E1,-3.026124001E0,1.070210457E0,7.593870163E-1
1.210317626E1,-2.928946972E0,5.560884476E-1,1.043394804E0
1.212307360E1,-2.340625286E0,-1.396999359E-1,1.310976028E0
1.214294865E1,-1.123496652E0,-7.064113617E-1,1.923547268E0
1.216283865E1,-1.157706380E0,-2.122793198E-1,1.779904842E0
1.218275756E1,-9.631348848E-1,-1.799011230E-2,-1.030094624E-1
1.220264412E1,-4.880144596E-1,1.337862015E-1,-9.798755646E-1
1.222254610E1,-1.796851158E-1,4.156484604E-1,-9.205069542E-1
1.224248037E1,-5.028462410E-2,3.325662613E-1,-5.456633568E-1
1.226229589E1,1.266841888E-1,1.938610077E-1,-3.636908531E-2
1.228217131E1,-1.473031044E-1,1.694946289E-1,1.131815910E-1
1.230207626E1,-2.413780689E-1,2.364616394E-1,-1.408374310E-1
1.232195626E1,-5.480289459E-3,2.417201996E-1,-4.394478798E-1
1.234184720E1,5.303907394E-2,1.996126175E-1,-3.753225803E-1
1.236174183E1,-5.896639824E-2,2.457933426E-1,-8.053827286E-2
1.238165084E1,-1.160063744E-1,2.969570160E-1,-6.466460228E-2
1.240155970E1,-1.734488010E-1,2.714366913E-1,2.375125885E-3
1.242141865E1,-3.254175186E-3,8.824920654E-2,8.088350296E-3
1.244132220E1,1.955993176E-1,7.044982910E-2,6.715035439E-2
1.246119605E1,2.757563591E-1,8.205795288E-2,5.499553680E-2
1.248110110E1,2.211601734E-1,3.718566895E-2,-3.034138680E-2
1.250099173E1,2.951908112E-1,9.382152557E-2,-7.469892502E-3
1.252088126E1,2.876579762E-1,1.548471451E-1,7.056236267E-2
1.254077694E1,4.746680260E-1,2.061052322E-1,9.674167633E-2
1.256065094E1,5.773382187E-1,8.478355408E-2,1.738858223E-1
1.258056058E1,4.071314335E-1,-1.008882523E-1,1.066145897E-1
1.260047121E1,3.720269203E-1,-8.605766296E-2,-7.461237907E-2
1.262034433E1,3.764350414E-1,5.545330048E-2,-8.024072647E-2
1.264019673E1,2.641081810E-1,1.183443069E-1,-1.748752594E-2
1.266011032E1,8.549261093E-2,-1.193332672E-2,3.565359116E-2
1.267997855E1,-8.245682716E-2,5.976295471E-2,2.598702908E-1
1.269988120E1,-2.296159267E-1,1.867179871E-1,4.155097008E-1
1.271976667E1,5.569243431E-2,1.035242081E-1,2.990117073E-1
1.273964865E1,5.510766506E-1,-1.655864716E-2,1.166610718E-1
1.275956360E1,8.533587456E-1,-1.880512238E-1,-1.934647560E-1
1.277946214E1,6.999793053E-1,-3.450403214E-1,-3.213129044E-1
1.279935194E1,3.089985847E-1,-3.449306488E-1,-2.991719246E-1
1.281923996E1,2.268733978E-1,-2.277250290E-1,-5.136430264E-1
1.283911272E1,2.506055832E-1,-1.085376740E-1,-6.621742249E-1
1.285901220E1,1.135816574E-1,-1.119270325E-1,-5.688560009E-1
1.287891204E1,-2.142121792E-1,-1.910028458E-1,-4.437537193E-1
1.289875944E1,-3.799760342E-1,-2.614059448E-1,-1.563100815E-1
1.291866527E1,-4.060056210E-1,-3.100986481E-1,3.659319878E-2
1.293854011E1,-2.916848660E-1,-1.643791199E-1,2.685308456E-2
1.295847829E1,-1.600289345E-2,-4.689216614E-2,-2.331972122E-3
1.297837371E1,1.362931728E-1,-3.246116638E-2,-5.698370934E-2
1.299821720E1,7.512378693E-2,-1.533889771E-2,-2.874469757E-2
1.301813657E1,5.037975311E-2,2.137470245E-2,-2.409172058E-2
1.303801287E1,1.732666492E-1,-2.232360840E-2,-1.619231701E-1
1.305789970E1,1.808810234E-2,9.132003784E-2,-1.825139523E-1
1.307777902E1,-3.963685036E-1,1.808195114E-1,-9.624528885E-2
1.309768319E1,-8.086057901E-1,3.152751923E-1,6.571531296E-3
1.311758506E1,-1.149327397E0,5.611095428E-1,2.259795666E-1
1.313744631E1,-1.719214678E0,7.775039673E-1,4.312243462E-1
1.315737782E1,-2.101166725E0,1.003113747E0,7.575705051E-1
1.317725610E1,-2.215507507E0,1.094906807E0,8.565044403E-1
1.319713350E1,-2.397361279E0,1.036785126E0,8.604266644E-1
1.321702636E1,-2.813314915E0,1.126967430E0,1.013272762E0
1.323688110E1,-2.741943836E0,1.115425110E0,8.668029308E-1
1.325677787E1,-2.142763615E0,8.203077316E-1,5.653524399E-1
1.327666792E1,-2.103178978E0,6.848325729E-1,9.772424698E-1
1.329658464E1,-1.999655724E0,7.491273880E-1,2.068745613E0
1.331648584E1,-1.850316763E0,9.572277069E-1,2.954777241E0
1.333638339E1,-2.885230541E0,1.658174038E0,2.983080864E0
1.335626048E1,-4.319272995E0,2.671257496E0,2.438259125E0
1.337614011E1,-4.947451591E0,3.793943405E0,2.406416893E0
1.339602542E1,-5.645853043E0,5.076072693E0,2.666747570E0
1.341589292E1,-7.695762634E0,6.448277473E0,2.211587429E0
1.343579355E1,-1.177755928E1,8.031381607E0,1.887646675E0
1.345570235E1,-1.220885944E1,9.209421158E0,5.622243881E-1
1.347559902E1,-8.777218819E0,9.338839531E0,-2.531510830E0
1.349547167E1,-6.092321396E0,9.024519920E0,-6.326263905E0
1.351539459E1,-5.593232155E0,6.389254093E0,-9.972107887E0
1.353524240E1,-7.605766296E0,-1.531684399E0,-1.174368191E1
1.355515282E1,-1.044671440E1,-1.623592758E1,-9.558130264E0
1.357502298E1,-1.279727173E1,-4.085366821E1,2.207118034E0
1.359490782E1,-1.322509003E1,-6.201465607E1,1.235320568E1
1.361479563E1,-6.202425957E-1,-4.223493576E1,1.191906929E0
1.363471923E1,1.379845333E1,-6.404713631E0,-2.015014648E1
1.365460631E1,-1.299117470E1,9.975269437E-1,-1.636268997E1
1.367450850E1,-9.373409271E0,-7.114148140E0,5.706327438E0
1.369439626E1,1.799642801E0,-8.516070366E0,6.596633911E0
1.371428944E1,-1.858290434E0,-9.012017250E0,-7.576910019E0
1.373416287E1,-1.839813471E0,-1.056931400E1,-9.422846794E0
1.375404126E1,5.023421645E-1,-9.373883247E0,-4.536544323E0
1.377392084E1,6.664684415E-1,-6.942820072E0,2.801036835E-2
1.379382475E1,-4.273978472E-1,-4.223600864E0,6.576938629E-1
1.381370683E1,-1.512527227E0,-2.866959333E0,-2.512814045E0
1.383360376E1,-1.565591097E0,-6.755456924E-1,-4.742247105E0
1.385348688E1,-2.230226278E0,2.242106438E0,-4.537795067E0
1.387343813E1,-2.347602844E0,3.967206001E0,-2.365449905E0
1.389327834E1,-1.723704815E0,4.199869633E0,-1.235100746E0
1.391317370E1,-1.257210255E0,4.262054443E0,-1.690953732E0
1.393307652E1,-1.456904411E0,3.870583057E0,-1.336256027E0
1.395292204E1,-1.524591208E0,4.167726040E0,1.078111887E0
1.397280902E1,-1.285170794E0,4.185008049E0,3.173055649E0
1.399273069E1,-2.640896320E0,3.261760712E0,2.554948330E0
1.401260782E1,-4.366348743E0,3.278885841E0,1.203149080E0
1.403252110E1,-4.432343006E0,4.181545258E0,2.174678802E0
1.405242933E1,-3.777488708E0,4.509181976E0,3.477123260E0
1.407229496E1,-4.041122437E0,3.968945503E0,2.544569016E0
1.409215636E1,-4.903614044E0,3.365836143E0,1.545890808E0
1.411204261E1,-4.699430466E0,2.746241570E0,2.248080254E0
1.413194016E1,-3.170684814E0,1.072286606E0,2.352358818E0
1.415182855E1,-1.907813668E0,-4.131116867E-1,3.576498508E0
1.417170636E1,-4.859585762E0,9.150915146E-1,4.565111160E0
1.419160032E1,-4.845009804E0,5.131196976E-1,1.909995794E0
1.421151011E1,-2.589295149E0,4.317655563E-1,-1.380536556E-1
1.423138115E1,-8.196883202E-1,6.714353561E-1,-7.309186459E-1
1.425125751E1,-1.320362091E-1,5.949802399E-1,-3.847534657E-1
1.427114678E1,1.611762047E-1,2.308988571E-1,-8.014512062E-2
1.429106339E1,2.023544312E-1,3.627700806E-1,-3.098489046E-1
1.431096141E1,-1.370162964E-1,5.181274414E-1,-5.607388020E-1
1.433083110E1,-3.625683784E-1,4.462966919E-1,-3.924212456E-1
1.435071183E1,-3.698039055E-1,4.557027817E-1,2.223172188E-1
1.437062287E1,-5.462813377E-2,3.644485474E-1,4.294216633E-1
1.439057798E1,-2.409088612E-1,4.662399292E-1,4.364290237E-1
1.441044016E1,-5.990278721E-1,3.241558075E-1,1.883730888E-1
1.443029303E1,-5.184354782E-1,3.190221786E-1,-1.390345097E-1
1.445017694E1,-3.971946239E-1,2.081804276E-1,-1.510097980E-1
1.447007860E1,-3.365385532E-1,2.847957611E-2,-1.468539238E-1
1.448997808E1,-2.111122608E-1,-1.492300034E-1,-1.931302547E-1
1.450986626E1,-4.912972450E-2,-1.665601730E-1,-1.438975334E-1
1.452972813E1,1.431689262E-1,-1.737728119E-1,-3.514206409E-1
1.454962667E1,4.114782810E-1,-1.744489670E-1,-5.607010126E-1
1.456951095E1,5.735683441E-1,-2.621898651E-1,-4.210352898E-1
1.458942027E1,6.496415138E-1,-3.407306671E-1,-2.274241447E-1
1.460928042E1,6.042010784E-1,-3.194961548E-1,-1.636478901E-1
1.462917209E1,4.317817688E-1,-2.467002869E-1,-1.726808548E-1
1.464908902E1,4.229469299E-1,-1.933622360E-1,-1.248214245E-1
1.466895319E1,4.184873104E-1,-2.279663086E-1,-9.992718697E-2
1.468884657E1,4.443478584E-1,-6.884288788E-2,-1.523807049E-1
1.470873511E1,5.901663303E-1,8.315753937E-2,-3.155033588E-1
1.472864662E1,5.386409760E-1,-6.097507477E-2,-1.768321991E-1
1.474854287E1,4.265213013E-1,-1.112165451E-1,1.191382408E-1
1.476841985E1,3.633081913E-1,1.620092392E-1,-1.149344444E-2
1.478831016E1,2.654869556E-1,2.581176758E-1,1.046609879E-2
1.480818636E1,4.157481194E-1,2.314434052E-1,4.102993011E-2
1.482808100E1,3.582112789E-1,2.307891846E-1,7.912254333E-2
1.484798110E1,1.185922623E-1,1.789445877E-1,7.778000832E-2
1.486786740E1,9.604930878E-2,1.702718735E-1,-1.892518997E-2
1.488776912E1,3.094553947E-2,2.546291351E-1,-1.648523808E-1
1.490764162E1,-5.950140953E-2,2.594089508E-1,-3.123254776E-1
1.492754386E1,-1.275620461E-1,1.084575653E-1,-2.274639606E-1
1.494743579E1,-2.651488781E-1,-1.143121719E-1,-7.083177567E-3
1.496730813E1,-4.032154083E-1,-5.518531799E-2,-1.135766506E-1
1.498718855E1,-4.845407009E-1,1.623868942E-1,-5.288619995E-1
1.500709615E1,-5.927810669E-1,2.424421310E-1,-4.952304363E-1
1.502699214E1,-7.778022289E-1,1.160621643E-1,-1.804158688E-1
1.504687949E1,-9.790908098E-1,1.175098419E-1,7.140636444E-4
1.506678131E1,-1.239979863E0,2.858991623E-1,-1.398725510E-1
1.508666850E1,-1.323529601E0,4.635858536E-1,-2.313241959E-1
1.510658115E1,-1.654172540E0,8.195323944E-1,2.444119453E-1
1.512644001E1,-2.230530262E0,1.227582932E0,9.046175480E-1
1.514632845E1,-2.623357296E0,1.552857399E0,1.509234190E0
1.516619912E1,-2.678432941E0,1.581748962E0,1.563853264E0
1.518611240E1,-2.259805679E0,1.941336632E0,1.386014938E0
1.520601110E1,-2.242917538E0,2.344559669E0,1.596858978E0
1.522589194E1,-2.973340988E0,2.939105034E0,1.982334614E0
1.524577433E1,-4.623527527E0,3.143315315E0,1.994634151E0
1.526566871E1,-6.583147049E0,3.621006966E0,1.182974339E0
1.528556631E1,-8.094913483E0,4.712930202E0,-9.967470169E-2
1.530542298E1,-7.515605450E0,6.341287613E0,-1.128181934E0
1.532533381E1,-6.340510368E0,7.415558338E0,-2.197875023E0
1.534522235E1,-6.522735596E0,8.008028030E0,-3.471441031E0
1.536512235E1,-7.526274204E0,8.570653915E0,-4.455661774E0
1.538501032E1,-6.611339569E0,8.230874062E0,-5.014039040E0
1.540490464E1,-3.678769588E0,6.777049065E0,-5.744773865E0
1.542477553E1,-2.270100832E0,2.362443924E0,-8.520755768E0
1.544466782E1,-4.873085976E0,-5.812090874E0,-9.559605598E0
1.546456626E1,-9.535058975E0,-1.940889931E1,-2.368663311E0
1.548449199E1,-9.273246765E0,-3.707057953E1,1.922731400E0
1.550434792E1,-6.198231697E0,-4.173771286E1,1.761384010E0
1.552423449E1,9.580574036E-1,-2.709815598E1,-2.307047367E0
1.554412720E1,1.207225800E0,-1.258613873E1,-9.821158409E0
1.556401376E1,-7.467541695E0,-9.912960052E0,-3.151742458E0
1.558388944E1,-5.964579582E-1,-4.888651371E0,4.109178543E0
1.560380235E1,-1.185414553E0,-8.390892982E0,-3.857233524E0
1.562369147E1,-1.245595932E0,-1.063373280E1,-4.957135677E0
1.564357345E1,-1.000280380E0,-1.137828827E1,-1.380696297E0
1.566346709E1,-2.498867035E0,-1.109095097E1,5.344867706E-1
1.568341938E1,-5.282053351E-1,-8.368471146E0,-5.946035385E-1
1.570324600E1,3.792415261E-1,-6.408009529E0,-1.206355095E0
1.572311360E1,-1.803820610E0,-3.182845831E0,-1.486044884E0
1.574304194E1,-3.348815203E0,2.319488525E-1,-2.054823875E0
1.576291839E1,-3.166647911E0,2.397140026E0,-2.253970623E0
1.578277928E1,-2.569168091E0,3.514854908E0,-1.719754696E0
1.580268178E1,-1.956996679E0,3.016524315E0,-2.138383389E0
1.582258287E1,-1.327588797E0,3.726115227E0,-2.653437138E0
1.584255105E1,-1.490824223E0,5.677351475E0,-8.358514309E-1
1.586245620E1,-1.633311033E0,5.259397984E0,1.671724081E0
1.588224350E1,-1.343890905E0,3.335688114E0,1.618687868E0
1.590213329E1,-1.057011843E0,2.349083900E0,7.040843964E-1
1.592203923E1,-1.493252993E0,3.440734863E0,2.020619631E0
1.594192235E1,-3.487505913E0,4.194815636E0,3.089097977E0
1.596181746E1,-4.126185894E0,4.009414673E0,2.990031242E0
1.598170553E1,-2.821732283E0,3.229042053E0,2.452148199E0
1.600157792E1,-2.097946167E0,1.871655464E0,1.625107288E0
1.602145334E1,-1.228537440E0,9.167623520E-1,1.486432552E0
1.604138496E1,-1.717480898E0,1.333835602E0,2.564701080E0
1.606123501E1,-5.076918125E0,1.494646072E0,2.444124460E0
1.608114355E1,-5.234730721E0,3.702754974E-1,1.448674202E0
1.610103808E1,-3.459802151E0,2.510871887E-1,1.926560879E0
1.612090949E1,-1.572513223E0,5.502519608E-1,1.054062843E0
1.614078688E1,-5.974850655E-1,9.053678513E-1,-2.852466106E-1
1.616070162E1,-5.012679100E-1,8.861865997E-1,-7.975504398E-1
1.618056704E1,-7.238864899E-1,4.869518280E-1,-6.286532879E-1
1.620048006E1,-4.744313955E-1,2.490186691E-1,-3.047158718E-1
1.622038412E1,-2.984422445E-1,3.625516891E-1,-3.877696991E-1
1.624024865E1,-4.492633343E-1,4.903469086E-1,-5.270242691E-1
1.626015964E1,-7.145298719E-1,2.723751068E-1,-3.083426952E-1
1.628002386E1,-7.715586424E-1,-6.570053101E-2,1.281471252E-1
1.629993855E1,-7.245391607E-1,-1.762809753E-1,1.553232670E-1
1.631980522E1,-4.126365185E-1,-2.129077911E-2,-1.436963081E-1
1.633971329E1,1.306519508E-1,7.271194458E-2,-4.440143108E-1
1.635959006E1,4.041452408E-1,1.061725616E-2,-1.887173653E-1
1.637947522E1,2.717847824E-1,4.189014435E-2,1.420567036E-1
1.639944329E1,1.214151382E-1,5.519580841E-2,-6.309700012E-2
1.641925709E1,2.940318584E-1,3.173446655E-2,-3.436703682E-1
1.643917704E1,5.022861958E-1,6.517505646E-2,-3.881740570E-1
1.645907902E1,5.674719810E-1,-7.164955139E-3,-1.022431850E-1
1.647893589E1,4.322636127E-1,-9.026908875E-2,4.662539959E-1
1.649883813E1,2.569816113E-1,1.838788986E-1,7.019925117E-1
1.651871532E1,4.897241592E-1,2.968187332E-1,3.101561069E-1
1.653861735E1,7.573330402E-1,1.851987839E-1,-1.093716621E-1
1.655850620E1,6.584491730E-1,-5.746555328E-2,-1.652839184E-1
1.657840907E1,3.497574329E-1,-1.685018539E-1,5.870413780E-2
1.659830162E1,1.214118004E-1,-1.182336807E-1,4.336404800E-1
1.661818417E1,-8.418226242E-2,1.047058105E-1,8.059835434E-2
1.663807053E1,1.596603394E-1,-1.370897293E-1,-6.783926487E-1
1.665795568E1,1.943085194E-1,-7.067298889E-2,-4.256446362E-1
1.667784126E1,-1.779235601E-1,-2.098865509E-1,3.063631058E-2
1.669773162E1,-2.110402584E-1,-2.012271881E-1,1.624863148E-1
1.671761850E1,1.308398247E-1,-1.699829102E-1,-3.305313587E-1
1.673747944E1,5.181438923E-1,-1.578578949E-1,-4.665093422E-1
1.675742423E1,3.436067104E-1,-2.397146225E-1,-4.926276207E-2
1.677729162E1,6.808948517E-2,-1.702375412E-1,2.606625557E-1
1.679718787E1,2.278175354E-1,-9.829139709E-2,-1.110911369E-1
1.681706157E1,6.466124058E-1,-3.963470459E-2,-1.133444309E-1
1.683695787E1,7.518603802E-1,-1.236085892E-1,2.356886864E-2
1.685686110E1,5.033917427E-1,-2.325754166E-1,1.148920059E-1
1.687672204E1,2.367415428E-1,-1.515130997E-1,1.270380020E-1
1.689661720E1,2.861280441E-1,-5.879402161E-3,-9.048295021E-2
1.691650214E1,3.972904682E-1,9.126663208E-2,-1.520166397E-1
1.693644084E1,4.553246498E-1,-2.944564819E-2,-5.604505539E-2
1.695630553E1,2.023191452E-1,-1.193170547E-1,-2.469563484E-2
1.697618365E1,-5.796480179E-2,-5.925178528E-2,-2.011749744E-1
1.699609423E1,-5.902147293E-2,-1.934528351E-2,-3.754112720E-1
1.701595391E1,-1.591274738E-1,3.017902374E-2,-4.607677460E-1
1.703586449E1,-3.551304340E-1,1.409292221E-1,-3.336629868E-1
1.705574902E1,-6.777759790E-1,1.958160400E-1,-2.798311710E-1
1.707563839E1,-9.422545433E-1,3.007326126E-1,-4.081697464E-1
1.709553996E1,-1.231624365E0,4.999504089E-1,-3.256566525E-1
1.711541511E1,-1.474564075E0,4.878702164E-1,-3.871512413E-1
1.713529042E1,-1.532673120E0,5.460290909E-1,-2.956883907E-1
1.715519475E1,-1.560404778E0,5.463991165E-1,-5.100591183E-1
1.717508990E1,-1.841755152E0,6.773719788E-1,-6.210951805E-1
1.719497730E1,-2.403553963E0,8.923845291E-1,-1.204955578E-1
1.721486808E1,-2.904981375E0,1.073753357E0,2.324705124E-1
1.723474272E1,-2.894362450E0,1.039456367E0,-7.956981659E-2
1.725465131E1,-3.001703262E0,9.285211563E-1,-1.326823235E-2
1.727453194E1,-3.005043507E0,9.058170319E-1,4.931848049E-1
1.729446334E1,-2.658111095E0,1.175132751E0,1.159034967E0
1.731431563E1,-2.914986372E0,1.701740265E0,1.958794594E0
1.733421308E1,-3.126127243E0,2.868779182E0,2.016275883E0
1.735410069E1,-3.487309694E0,3.832638741E0,5.123591423E-1
1.737397605E1,-5.066144943E0,5.581934929E0,-9.841256142E-1
1.739387261E1,-6.869019508E0,8.276094437E0,-1.804610014E0
1.741374240E1,-1.083902645E1,1.076370811E1,-3.692739964E0
1.743366746E1,-1.543131638E1,1.372924423E1,-6.737526894E0
1.745354938E1,-1.593024445E1,1.471499252E1,-9.538980484E0
1.747346803E1,-1.154054928E1,1.189162445E1,-1.061942101E1
1.749331167E1,-6.659862041E0,6.730720043E0,-1.053448582E1
1.751322761E1,-4.696279526E0,-2.350951672E0,-1.117088604E1
1.753312094E1,-8.196548462E0,-1.650766563E1,-8.044057846E0
1.755299292E1,-1.304154968E1,-3.671865082E1,-7.066001892E-1
1.757287678E1,-1.051180267E1,-5.368651962E1,1.944120407E0
1.759277694E1,-1.702128410E0,-4.627637482E1,-4.554271698E-2
1.761266516E1,9.383878708E0,-2.349634933E1,-1.123662090E1
1.763257860E1,-1.071986485E1,-9.277780533E0,-3.973162651E0
1.765244959E1,-6.480523109E0,-5.114852905E0,8.323568344E0
1.767234803E1,-2.518848181E-1,-1.278628159E1,-4.581806660E0
1.769222313E1,-3.048408270E0,-1.494061375E1,-6.927825928E0
1.771211803E1,1.448942661E0,-1.031311512E1,-2.606365681E0
1.773198574E1,1.428190470E0,-9.157867432E0,-1.645793438E0
1.775189246E1,5.492210388E-3,-6.551899910E0,-7.062711716E-1
1.777178277E1,3.290531635E-1,-3.375891447E0,-1.629554272E0
1.779164355E1,-9.215259552E-2,-9.149520397E-1,-2.669401169E0
1.781154782E1,-1.109117985E0,1.095040798E0,-2.327516556E0
1.783145808E1,-1.875691652E0,2.554315090E0,-9.646620750E-1
1.785134365E1,-2.579777718E0,3.388360500E0,-3.495540619E-1
1.787123819E1,-2.733716011E0,4.333253384E0,-3.638806343E-1
1.789113558E1,-2.323257208E0,4.785488605E0,7.750501633E-1
1.791100136E1,-1.281527758E0,4.318985939E0,2.296695471E0
1.793088652E1,-9.740862846E-1,4.612906456E0,3.614553452E0
1.795076261E1,-2.718063116E0,4.165426254E0,3.580991983E0
1.797068339E1,-5.063095570E0,3.420589447E0,2.823200941E0
1.799059459E1,-6.703599930E0,2.773582458E0,2.756618738E0
1.801047818E1,-5.970762253E0,2.655656815E0,3.206008196E0
1.803035022E1,-5.293230057E0,2.552771568E0,2.918148994E0
1.805023615E1,-4.662187576E0,1.268327713E0,1.988183498E0
1.807013324E1,-2.569239616E0,-6.889848709E-1,2.172683954E0
1.809001188E1,-2.590795040E0,-4.419279099E-1,3.058699131E0
1.810988391E1,-3.635528564E0,1.920480728E-1,1.632638693E0
1.812978766E1,-2.933959007E0,1.127993584E0,1.852345467E-1
1.814965511E1,-1.598743081E0,1.150383949E0,-6.001801491E-1
1.816954345E1,-3.441590071E-1,7.091178894E-1,-6.761066914E-1
1.818944454E1,-2.949457169E-1,5.917997360E-1,-3.462486267E-1
1.820934178E1,-9.935880899E-1,8.115959167E-1,-3.107175827E-1
1.822922699E1,-1.246531248E0,8.881835938E-1,-2.025991678E-1
1.824911470E1,-8.245558739E-1,3.674430847E-1,8.893775940E-2
1.826899011E1,-3.357670307E-1,-1.398372650E-2,2.973902225E-1
1.828889365E1,-6.755917072E-1,8.601760864E-2,1.324415207E-1
1.830878792E1,-1.068611145E0,2.887754440E-1,-1.554788351E-1
1.832866949E1,-1.186551332E0,8.364677429E-3,-1.868153811E-1
1.834856397E1,-6.330308914E-1,-2.999296188E-1,-1.006932259E-1
1.836846808E1,-1.351196766E-1,-3.319187164E-1,-4.523388147E-1
1.838838110E1,-2.351057529E-2,-1.868391037E-1,-7.610946894E-1
1.840827777E1,-2.173888683E-2,-2.231931686E-1,-6.184716225E-1
1.842813777E1,2.102459669E-1,-3.661193848E-1,-2.777705193E-1
1.844803298E1,5.653946400E-1,-3.392057419E-1,-3.264174461E-1
1.846791756E1,4.961416721E-1,1.036882401E-1,-4.411612749E-1
1.848778501E1,2.284269333E-1,8.162975311E-2,-2.909110785E-1
1.850769516E1,5.535576344E-1,-3.026981354E-1,-2.685534954E-2
1.852757115E1,7.339470387E-1,-2.412290573E-1,2.632306814E-1
1.854747074E1,4.436457157E-1,2.001285553E-2,-2.060030699E-1
1.856738246E1,-1.037335396E-2,2.817344666E-1,-4.956343174E-1
1.858726798E1,-1.542685032E-1,1.931648254E-1,-2.129833698E-1
1.860715402E1,2.119851112E-2,5.365562439E-2,2.067129612E-1
1.862706131E1,-2.242381573E-1,1.182909012E-1,3.194296360E-1
1.864693324E1,-6.282446384E-1,2.020225525E-1,4.179556370E-1
1.866681199E1,-3.903839588E-1,1.859750748E-1,3.896882534E-1
1.868672444E1,-4.526114464E-2,2.456836700E-1,2.075628042E-1
1.870659376E1,-9.347558022E-2,3.479986191E-1,5.456554890E-2
1.872652298E1,-1.818594933E-1,2.410821915E-1,1.314866543E-2
1.874641720E1,-1.623377800E-1,1.598539352E-1,5.374231339E-1
1.876628417E1,1.369843483E-1,-1.342391968E-2,7.635766268E-1
1.878614194E1,4.716792107E-1,1.162042618E-1,6.113678217E-1
1.880606001E1,6.497871876E-1,2.942390442E-1,5.542433262E-1
1.882594970E1,7.972488403E-1,3.972797394E-1,7.390489578E-1
1.884582324E1,7.919692993E-1,4.379358292E-1,8.001281023E-1
1.886573110E1,6.911981106E-1,6.306877136E-1,1.047517061E-1
1.888561610E1,3.817236423E-1,8.330659866E-1,-2.225680351E-1
1.890548537E1,-1.657762527E-1,7.251787186E-1,3.015024662E-1
1.892541454E1,-7.011609077E-1,4.191322327E-1,3.161344528E-1
1.894527949E1,-8.271877766E-1,2.068300247E-1,-2.121806145E-1
1.896515891E1,-8.439742327E-1,3.322887421E-2,-4.827115536E-1
1.898505459E1,-8.418117762E-1,-1.996440887E-1,-5.704108477E-1
1.900495928E1,-4.547123909E-1,-5.975418091E-1,-8.158502579E-1
1.902483959E1,-1.699278355E-1,-9.747905731E-1,-9.498770237E-1
1.904470615E1,-2.517979145E-1,-1.071594238E0,-9.909219742E-1
1.906460605E1,-3.873341084E-1,-1.117586613E0,-1.212722778E0
1.908452944E1,-4.565701485E-1,-8.407506943E-1,-1.063590169E0
1.910444449E1,-4.352886677E-1,-7.855634689E-1,-8.871086836E-1
1.912426444E1,-1.655294895E-1,-7.891645432E-1,-7.647330761E-1
1.914417475E1,1.428792477E-1,-6.431007385E-1,-7.471523285E-1
1.916407490E1,3.034958839E-1,-4.215221405E-1,-5.243656635E-1
1.918396459E1,3.030731678E-1,-1.012506485E-1,-2.520081997E-1
1.920383126E1,3.470671177E-1,1.995105743E-1,-5.659699440E-2
1.922374412E1,3.661704063E-2,4.223957062E-1,2.159943581E-1
1.924361834E1,-5.965199471E-1,6.617231369E-1,4.148099422E-1
1.926350324E1,-8.595495224E-1,9.189443588E-1,4.801244736E-1
1.928343022E1,-8.740937710E-1,1.198884010E0,4.861433506E-1
1.930329303E1,-1.101800561E0,1.471818924E0,5.021018982E-1
1.932317173E1,-1.608376384E0,1.695090294E0,8.303437233E-1
1.934309808E1,-2.172512531E0,2.022024155E0,1.247074127E0
1.936293694E1,-2.563601971E0,2.392786980E0,1.572607994E0
1.938285870E1,-3.261574507E0,2.989853859E0,2.165831804E0
1.940273126E1,-4.114118576E0,3.530163765E0,2.990655422E0
1.942264350E1,-3.973770857E0,4.448630333E0,3.302036047E0
1.944257042E1,-3.411037922E0,4.834262848E0,2.840091467E0
1.946246944E1,-3.694177389E0,5.220348358E0,1.510548115E0
1.948228652E1,-5.352115631E0,6.627602577E0,-6.694927216E-1
1.950218735E1,-7.902959347E0,8.415254593E0,-2.810616493E0
1.952210131E1,-1.006657791E1,1.040371990E1,-4.933094978E0
1.954195209E1,-1.143886948E1,1.198893929E1,-7.313748360E0
1.956186412E1,-1.076728916E1,1.149026299E1,-8.944061279E0
1.958174089E1,-7.625762939E0,6.363978863E0,-1.021992493E1
1.960162449E1,-6.182055473E0,-2.180254221E0,-1.012447071E1
1.962155022E1,-9.110493660E0,-1.534923553E1,-4.748986721E0
1.964142324E1,-1.339885139E1,-3.320277405E1,1.932536125E0
1.966128371E1,-9.361168861E0,-4.555363464E1,-9.154119492E-1
1.968118490E1,4.932626724E0,-3.740134811E1,-1.968776703E0
1.970109944E1,1.436832333E1,-1.571154213E1,-6.088210583E0
1.972098881E1,-9.588752747E0,-1.026622963E1,-8.168672562E0
1.974088339E1,-8.710852623E0,-6.374897480E0,7.196236610E0
1.976077709E1,-1.531426907E-1,-7.683057785E0,2.050812721E0
1.978064667E1,-3.016384602E0,-1.437213421E1,-8.148175240E0
1.980054115E1,-1.175574780E0,-1.093128109E1,-3.751136303E0
1.982048417E1,9.698575735E-1,-7.936699867E0,2.352313995E-1
1.984031808E1,6.119849682E-1,-6.048181534E0,-1.868839264E-1
1.986018542E1,3.374723196E-1,-4.566709995E0,-1.169183254E0
1.988010225E1,-5.303021669E-1,-1.866504669E0,-1.290456772E0
1.989999027E1,-1.767700911E0,1.415679932E0,-1.687744617E0
1.991987964E1,-2.674493551E0,2.841053486E0,-1.504434109E0
1.993977428E1,-3.565530062E0,3.126178741E0,-8.599858284E-1
1.995965594E1,-3.883533955E0,2.977644444E0,-4.328856468E-1
1.997954011E1,-3.106966734E0,3.429852009E0,-7.439227104E-1
1.999943136E1,-2.981511116E0,3.276169300E0,-9.113931656E-1
2.001932220E1,-3.032947302E0,3.031465054E0,-2.283134460E-1
2.003923506E1,-2.458829880E0,2.808713913E0,2.926509380E-1
2.005911251E1,-1.665444374E0,3.012666702E0,1.112898588E0
2.007901370E1,-1.956029892E0,2.524642944E0,1.331046581E0
2.009887350E1,-2.388310432E0,2.215030670E0,1.081645250E0
2.011878975E1,-2.594557524E0,2.163058281E0,1.222675323E0
2.013864277E1,-2.672346354E0,1.423421860E0,1.101145267E0
2.015854787E1,-2.696185112E0,1.367981911E0,1.495509386E0
2.017843131E1,-2.852240086E0,1.153264999E0,1.432107687E0
2.019831865E1,-3.067832232E0,1.448843956E0,9.070248604E-1
2.021820928E1,-2.826302052E0,1.479718208E0,5.407848358E-1
2.023810381E1,-2.511085272E0,8.838109970E-1,7.520956993E-1
2.025797886E1,-2.352564335E0,4.191770554E-1,1.651732206E0
2.027785891E1,-2.375575304E0,5.164375305E-1,1.754865885E0
2.029777261E1,-1.498151541E0,4.503831863E-1,7.110490799E-1
2.031764042E1,-3.689545393E-1,5.812091827E-1,1.324415207E-1
2.033755626E1,-1.849611998E-1,5.697221756E-1,-1.154334545E-1
2.035743740E1,-2.184587717E-1,4.649190903E-1,-1.260809898E-1
2.037736266E1,-3.488703966E-1,5.266199112E-1,-1.600341797E-1
2.039721251E1,-6.343340874E-2,5.506410599E-1,-1.251065731E-1
2.041711391E1,4.704570770E-2,4.093513489E-1,6.418156624E-2
2.043701714E1,-1.815264225E-1,3.056716919E-1,2.394535542E-1
2.045688141E1,-3.753604889E-1,3.408622742E-1,-5.100250244E-3
2.047677376E1,-2.659025192E-1,2.779655457E-1,-1.295738220E-1
2.049666850E1,1.930642128E-2,1.187191010E-1,-2.769786119E-1
2.051660574E1,-2.109041214E-1,4.796123505E-2,-3.755637407E-1
2.053646766E1,-7.732862234E-1,1.241455078E-1,-2.426830530E-1
2.055639173E1,-8.580989838E-1,6.484699249E-2,-1.987376213E-1
2.057622256E1,-5.115636587E-1,4.753494263E-2,-1.269204617E-1
2.059611402E1,-2.403645515E-1,1.254320145E-1,-1.426804066E-1
2.061601444E1,-2.025170326E-1,4.883861542E-2,-2.304725647E-1
2.063591761E1,-2.716944218E-1,2.383804321E-2,-2.202023268E-1
2.065578803E1,-2.145640850E-1,1.217651367E-1,-1.262230873E-1
2.067568699E1,2.793288231E-2,2.207040787E-1,-8.610177040E-2
2.069557042E1,8.178162575E-2,1.373176575E-1,-1.830959320E-2
2.071546792E1,2.040386200E-3,-5.311393738E-2,2.097630501E-2
2.073537902E1,1.253783703E-1,-8.232307434E-2,-9.220528603E-2
2.075525662E1,2.943227291E-1,6.547927856E-2,-2.787207365E-1
2.077511610E1,4.488830566E-1,6.553840637E-2,-3.964879513E-1
2.079502865E1,3.670928478E-1,-1.791448593E-1,-1.544604301E-1
2.081491516E1,3.002960682E-1,-4.290456772E-1,3.968858719E-2
2.083479824E1,2.180504799E-1,-4.681062698E-1,-1.680707932E-1
2.085469350E1,1.918730736E-1,-3.899650574E-1,-3.818845749E-1
2.087462136E1,1.501991749E-1,-4.443149567E-1,-2.777422667E-1
2.089449996E1,1.959123611E-1,-3.965263367E-1,-4.794359207E-2
2.091441100E1,3.629062176E-1,-2.603273392E-1,-3.564318419E-1
2.093423662E1,3.750734329E-1,-7.445716858E-2,-5.927397013E-1
2.095414428E1,1.454019547E-1,-4.385471344E-2,-4.338310957E-1
2.097402074E1,-1.498079300E-1,3.507614136E-2,-1.391646862E-1
2.099393313E1,-3.543448448E-1,3.568038940E-1,-6.241321564E-3
2.101382673E1,-5.342586040E-1,7.031774521E-1,-4.207301140E-2
2.103373558E1,-6.785142422E-1,6.867179871E-1,-1.851391792E-2
2.105360011E1,-6.455621719E-1,6.100997925E-1,6.642866135E-2
2.107347819E1,-7.138712406E-1,6.796092987E-1,1.647846699E-1
2.109343803E1,-1.062749386E0,9.376087189E-1,2.587561607E-1
2.111325032E1,-1.515783668E0,1.141170502E0,2.415578365E-1
2.113314162E1,-1.995544910E0,1.226394653E0,3.816227913E-1
2.115304308E1,-2.645610094E0,1.250720978E0,8.875634670E-1
2.117292891E1,-3.066709518E0,1.432369232E0,1.138059855E0
2.119283673E1,-3.196294785E0,1.598482132E0,9.034874439E-1
2.121272683E1,-3.354380131E0,1.308241844E0,9.578628540E-1
2.123263079E1,-3.531746387E0,1.299676895E0,1.622437716E0
2.125251891E1,-3.406336308E0,2.065322876E0,1.728805542E0
2.127243522E1,-2.852730751E0,2.291188240E0,1.283966541E0
2.129225391E1,-3.333897591E0,2.509696960E0,2.089098215E0
2.131216355E1,-5.618222237E0,3.968335152E0,1.904560089E0
2.133206183E1,-7.533366203E0,6.058029175E0,1.176284313E0
2.135194417E1,-7.242314816E0,7.353718758E0,1.223675728E0
2.137183136E1,-4.760622025E0,8.104207039E0,6.064934731E-1
2.139171855E1,-4.148371696E0,9.358963013E0,-1.349844456E0
2.141161548E1,-4.908336639E0,1.082888031E1,-3.488554716E0
2.143147949E1,-5.140099049E0,1.110072899E1,-5.430834770E0
2.145141678E1,-6.716552258E0,9.586893082E0,-7.973196983E0
2.147128318E1,-1.016499615E1,5.373491287E0,-1.067411709E1
2.149117803E1,-1.197676754E1,-3.306672812E0,-8.054528236E0
2.151107339E1,-1.157657433E1,-1.760429001E1,-4.156360626E-1
2.153096881E1,-8.761934280E0,-3.683214569E1,-1.730099678E0
2.155084344E1,-3.164809227E0,-5.208032990E1,-5.017925262E0
2.157074022E1,7.778465748E0,-4.009927750E1,-2.808135986E0
2.159060996E1,9.648914337E0,-1.185197926E1,-9.260560989E0
2.161053016E1,-1.298660564E1,-7.149405003E0,-7.027323246E0
2.163045438E1,-7.061128616E0,-5.640537262E0,7.891896248E0
2.165028907E1,-1.955493927E0,-9.455794334E0,-3.445777893E-1
2.167017803E1,-2.566780090E0,-1.286325932E1,-8.029142380E0
2.169010048E1,1.116664886E0,-9.311233521E0,-3.540354252E0
2.170995032E1,1.368653655E0,-8.108312607E0,-6.628284454E-1
2.172986501E1,1.986341774E-1,-7.097167969E0,-4.952239990E-2
2.174973792E1,-5.899531841E-1,-5.577214718E0,-2.974843979E-1
2.176962751E1,-1.484540582E0,-3.227423668E0,-6.047010422E-1
2.178949876E1,-2.645707130E0,-9.873485565E-2,-1.378330708E0
2.180943079E1,-2.956046581E0,2.342807293E0,-2.570159435E0
2.182929120E1,-2.881924629E0,3.826383114E0,-1.789207458E0
2.184916704E1,-2.921308517E0,3.419899940E0,-6.004471779E-1
2.186908370E1,-2.329318523E0,2.597828865E0,-1.792075396E0
2.188895855E1,-2.249357224E0,3.015797615E0,-2.452143192E0
2.190886912E1,-3.047330856E0,4.615119457E0,-8.567419052E-1
2.192874542E1,-2.376062393E0,4.964882851E0,8.751745224E-1
2.194863647E1,-1.488485098E0,3.336056709E0,9.752256870E-1
2.196853829E1,-1.850129128E0,2.871509552E0,5.867917538E-1
2.198844928E1,-3.461240053E0,3.655545235E0,7.372882366E-1
2.200834506E1,-4.525494576E0,3.761590004E0,1.809475660E0
2.202818199E1,-3.613773108E0,3.240787506E0,2.749246597E0
2.204810063E1,-3.085126162E0,2.583976746E0,1.410875559E0
2.206796318E1,-2.670661688E0,2.551246643E0,-4.067873955E-2
2.208785751E1,-2.021290541E0,2.472673416E0,8.055908680E-1
2.210773251E1,-1.589830637E0,2.034418106E0,2.125527859E0
2.212762042E1,-1.553587675E0,1.586569786E0,1.632254124E0
2.214751725E1,-1.289506912E0,8.433265686E-1,3.876051903E-1
2.216742725E1,-1.976277351E0,8.474416733E-1,1.584006786E0
2.218731980E1,-2.756259680E0,8.274192810E-1,2.542064190E0
2.220718428E1,-2.057784557E0,3.176965714E-1,1.058220744E0
2.222709662E1,-1.458426952E0,4.499988556E-1,-3.270839453E-1
2.224695376E1,-1.476273417E0,8.420581818E-1,-8.758208752E-1
2.226685834E1,-1.635719538E0,9.102077484E-1,-9.175636768E-1
2.228676480E1,-1.450608373E0,7.186660767E-1,-4.718720913E-1
2.230664720E1,-1.346769571E0,5.434751511E-1,-2.337957621E-1
2.232654558E1,-1.001285195E0,4.037895203E-1,-2.867263556E-1
2.234644444E1,-5.677137375E-1,4.088163376E-1,-1.949838400E-1
2.236634246E1,-2.510375977E-1,2.805204391E-1,-7.025635242E-2
2.238622053E1,-3.593220711E-1,1.780376434E-1,-1.668691635E-3
2.240610709E1,-5.743336678E-1,2.645454407E-1,-1.130083799E-1
2.242598282E1,-5.709738731E-1,1.998405457E-1,-2.039277554E-1
2.244586157E1,-2.725689411E-1,-2.392768860E-3,-1.228611469E-1
2.246575282E1,4.571175575E-2,-1.623678207E-1,-1.155841351E-2
2.248568308E1,-2.108812332E-2,-7.943534851E-2,-1.755017042E-1
2.250553813E1,-1.031324863E-1,6.975460052E-2,-4.208641052E-1
2.252544636E1,-1.345038414E-1,1.066379547E-1,-4.127718210E-1
2.254534589E1,8.767843246E-3,3.807544708E-2,-2.531290054E-1
2.256520251E1,2.167096138E-1,4.309272766E-2,-1.299419403E-1
2.258509397E1,1.727936268E-1,1.919097900E-1,-1.879212856E-1
2.260500589E1,1.369633675E-1,1.612043381E-1,-2.326393127E-1
2.262488042E1,3.318674564E-1,-1.427440643E-1,-3.045380116E-2
2.264479444E1,5.114574432E-1,-2.709474564E-1,2.482483387E-1
2.266467167E1,4.346003532E-1,-1.799230576E-1,-2.451062202E-3
2.268459970E1,3.877725601E-1,-2.109985352E-1,-3.553634882E-1
2.270445266E1,4.299967289E-1,-3.194999695E-1,-3.660209179E-1
2.272434183E1,5.980272293E-1,-4.757366180E-1,-2.990244627E-1
2.274423371E1,6.343426704E-1,-4.945507050E-1,-1.920474768E-1
2.276413902E1,5.149617195E-1,-2.964153290E-1,-1.769706011E-1
2.278399084E1,2.966313362E-1,-1.811246872E-1,-2.370150089E-1
2.280387824E1,2.276508808E-1,-1.458349228E-1,-1.670099497E-1
2.282378667E1,1.473867893E-1,-9.428310394E-2,1.195430756E-2
2.284365829E1,-9.633064270E-3,-7.423686981E-2,1.688957214E-2
2.286356917E1,-7.836103439E-2,-8.149242401E-2,8.109068871E-2
2.288345605E1,-1.361532211E-1,-2.760601044E-2,1.716467142E-1
2.290334402E1,-1.538157463E-1,-2.443981171E-2,1.027078629E-1
2.292321501E1,-1.407096386E-1,4.288864136E-2,1.097738743E-2
2.294313454E1,-1.234588623E-1,3.077793121E-2,-7.043755054E-2
2.296302568E1,-6.190109253E-2,-7.453823090E-2,-1.503133774E-2
2.298288980E1,4.246544838E-2,-6.762599945E-2,3.085112572E-2
2.300280277E1,2.137396336E-1,1.382923126E-2,4.644143581E-2
2.302269089E1,2.922985554E-1,-1.847553253E-2,6.878983974E-2
2.304258454E1,2.744824886E-1,-1.258134842E-1,2.692031860E-2
2.306246933E1,3.021445274E-1,-1.544275284E-1,-3.238272667E-2
2.308240407E1,3.656260967E-1,-1.066465378E-1,-1.079720259E-1
2.310224678E1,3.887796402E-1,-9.708023071E-2,-1.138453484E-1
2.312214475E1,4.124491215E-1,-1.525182724E-1,-7.188439369E-3
2.314201173E1,4.052217007E-1,-1.519651413E-1,4.950821400E-2
2.316192777E1,3.758318424E-1,-6.411361694E-2,3.788590431E-3
2.318180542E1,2.287704945E-1,-7.440757751E-2,8.080005646E-4
2.320170376E1,8.067488670E-2,-1.027917862E-1,9.915745258E-2
2.322158704E1,2.294270992E-1,-6.263160706E-2,2.835733891E-1
2.324146037E1,1.347765923E-1,3.221130371E-2,5.390238762E-1
2.326137188E1,-3.446447849E-1,2.582941055E-1,5.621860027E-1
2.328124074E1,-7.964360714E-1,3.974313736E-1,6.053717136E-1
2.330115568E1,-9.377932549E-1,2.579917908E-1,5.197441578E-1
2.332104022E1,-1.017674923E0,-1.154232025E-2,2.765130997E-1
2.334090923E1,-1.141030312E0,2.422189713E-1,-1.011056900E-1
2.336080657E1,-1.399684191E0,7.087717056E-1,-1.918990612E-1
2.338069740E1,-1.833190441E0,1.002544403E0,-6.282401085E-2
2.340060912E1,-2.352410555E0,8.731079102E-1,1.429846287E-1
2.342050964E1,-2.775499582E0,1.188294411E0,4.286551476E-1
2.344042907E1,-2.959560633E0,2.081916809E0,8.264803886E-1
2.346024277E1,-3.299243212E0,2.655029297E0,1.999434471E0
2.348014694E1,-4.046731472E0,3.139691353E0,4.152970314E0
2.350005042E1,-4.986216068E0,4.448316574E0,5.753240585E0
2.351993370E1,-5.131966591E0,5.450030327E0,6.495991707E0
2.353983558E1,-4.363581181E0,5.855990887E0,6.074833870E0
2.355969553E1,-4.225252151E0,7.107048988E0,4.714600563E0
2.357961204E1,-5.367982864E0,8.804288864E0,4.238791466E0
2.359947621E1,-5.546489716E0,1.076354027E1,3.058588028E0
2.361941459E1,-5.499936104E0,1.213365364E1,-8.917093277E-1
2.363927214E1,-6.176673889E0,1.240674877E1,-6.091524601E0
2.365917746E1,-5.858754158E0,1.074053955E1,-8.917272568E0
2.367904751E1,-5.448959827E0,6.258822441E0,-9.508947372E0
2.369894621E1,-7.422578812E0,-1.373089314E0,-1.078135967E1
2.371882537E1,-9.878750801E0,-1.491068840E1,-8.421143532E0
2.373871214E1,-1.135085583E1,-3.650331879E1,2.260870934E0
2.375862370E1,-5.136148453E0,-5.401354599E1,4.859911919E0
2.377849860E1,2.494648933E0,-4.020030212E1,-4.546985626E0
2.379839350E1,5.214115620E0,-1.556067085E1,-1.283826160E1
2.381828345E1,-9.982370377E0,-6.223793030E0,-3.398554325E0
2.383818319E1,-1.038313484E1,-5.779889584E0,4.680271149E0
2.385806631E1,-1.040848851E0,-1.366447258E1,-4.313594818E0
2.387793813E1,-3.941261172E-1,-1.503450871E1,-7.872440338E0
2.389785235E1,1.492913008E0,-1.099762058E1,-3.029894352E0
2.391771824E1,2.872649670E0,-8.825658798E0,-1.667839050E0
2.393761777E1,1.117744923E0,-6.920046806E0,-1.557353020E0
2.395748751E1,-5.402069092E-1,-4.476586819E0,-2.024363995E0
2.397742501E1,-8.303375244E-1,-1.338648081E0,-3.434673309E0
2.399728912E1,-1.669523478E0,2.333611965E0,-3.406746626E0
2.401716912E1,-2.461479425E0,4.298861980E0,-1.832016468E0
2.403708537E1,-2.639138937E0,3.504368782E0,-1.708770752E0
2.405696152E1,-2.541388988E0,4.154499531E0,-2.244075537E0
2.407683042E1,-2.110700607E0,6.529198170E0,2.019362450E-1
2.409671730E1,-3.031364441E0,6.340640545E0,2.518827677E0
2.411660162E1,-2.945728064E0,4.053877831E0,1.852841139E0
2.413651516E1,-2.105156660E0,3.460833549E0,1.762541056E0
2.415642740E1,-2.242235661E0,4.002902031E0,2.996803761E0
2.417628376E1,-3.833595037E0,4.366248131E0,3.501397848E0
2.419615818E1,-4.854737759E0,4.347505569E0,3.297892332E0
2.421606032E1,-4.426094055E0,3.162043571E0,3.700196028E0
2.423597829E1,-2.772825241E0,8.103094101E-1,4.215011597E0
2.425585912E1,-5.522312164E0,1.105634689E0,4.664390564E0
2.427574365E1,-6.520314217E0,1.689724922E0,2.759413242E0
2.429563589E1,-5.247321606E0,1.408371925E0,1.335041046E0
2.431550600E1,-2.718343735E0,9.264659882E-1,8.928351402E-1
2.433541397E1,-6.051396132E-1,6.018047333E-1,2.367514372E-1
2.435528928E1,1.791746616E-1,4.260187149E-1,-5.216722488E-1
2.437521079E1,4.766678810E-1,5.088872910E-1,-8.109551668E-1
2.439510350E1,3.615727425E-1,5.789699554E-1,-8.289376497E-1
2.441498032E1,1.089708805E-1,5.089883804E-1,-5.932477713E-1
2.443491980E1,1.011893749E-1,3.913726807E-1,-2.659971714E-1
2.445476251E1,3.529334068E-2,3.270359039E-1,-1.316441298E-1
2.447465063E1,-5.640981197E-1,2.225790024E-1,-7.514393330E-2
2.449455220E1,-7.740278244E-1,-1.038627625E-1,4.102146626E-2
2.451445579E1,-7.737610340E-1,-3.171405792E-1,2.529431581E-1
2.453429246E1,-4.138543606E-1,-4.091644287E-2,-2.137827873E-2
2.455421522E1,-3.125548363E-2,1.681785583E-1,-4.954059124E-1
2.457410365E1,7.846188545E-2,7.276439667E-2,-4.400835037E-1
2.459398626E1,1.552860737E-1,-1.400671005E-1,-4.903376102E-2
2.461385178E1,2.986040115E-1,-1.459255219E-1,-2.920818329E-2
2.463375860E1,3.407719135E-1,3.526115417E-2,-2.923653126E-1
2.465365329E1,3.192043304E-1,2.251834869E-1,-3.881680965E-1
2.467354657E1,4.892385006E-1,2.017593384E-1,-3.601492643E-1
2.469347152E1,4.671370983E-1,2.680301666E-2,-2.792266607E-1
2.471333319E1,2.159383297E-1,1.109504700E-2,-1.251184940E-1
2.473321136E1,2.954554558E-2,2.463150024E-2,-6.436491013E-2
2.475310714E1,2.975940704E-2,1.940250397E-2,-6.389260292E-2
2.477299094E1,1.859087944E-1,-1.282148361E-1,-9.684598446E-2
2.479285813E1,3.298437595E-1,-2.834835052E-1,-2.292540073E-1
2.481275277E1,3.983650208E-1,-2.722253799E-1,-3.815274239E-1
2.483264542E1,3.277475834E-1,-9.541893005E-2,-3.991169930E-1
2.485255829E1,1.437067986E-1,-4.652404785E-2,-3.003091812E-1
2.487244480E1,3.047204018E-2,-1.323194504E-1,-2.384734154E-2
2.489233194E1,-1.107213497E-1,-1.060686111E-1,9.674906731E-2
2.491221985E1,-2.626574039E-1,8.884143829E-2,-1.368892193E-1
2.493210167E1,-1.762535572E-1,1.105699539E-1,-2.397060394E-1
2.495199970E1,-5.973172188E-2,9.330749512E-3,-5.509614944E-2
2.497187272E1,-3.206167221E-1,1.695919037E-2,9.272670746E-2
2.499177688E1,-8.740541935E-1,2.751064301E-1,7.139539719E-2
2.501165178E1,-1.173531413E0,5.871791840E-1,7.554841042E-2
2.503156131E1,-1.151878357E0,6.837501526E-1,2.451603413E-1
2.505145667E1,-1.025759935E0,7.238922119E-1,1.739876270E-1
2.507134777E1,-1.217931032E0,8.599452972E-1,-8.079648018E-2
2.509124011E1,-1.399882913E0,7.291793823E-1,-2.023463249E-1
2.511112397E1,-1.305554390E0,6.720905304E-1,-6.242060661E-2
2.513101975E1,-1.328966141E0,7.671871185E-1,1.213126183E-1
2.515089891E1,-1.339010596E0,4.685497284E-1,6.112360954E-2
2.517077527E1,-1.130821466E0,3.850650787E-2,2.101342678E-1
2.519066522E1,-9.381341934E-1,3.934764862E-2,3.208863735E-1
2.521058756E1,-9.549157619E-1,5.236358643E-1,1.337888241E-1
2.523049069E1,-9.921808243E-1,6.890611649E-1,2.117898464E-1
2.525035902E1,-8.407607079E-1,6.966094971E-1,5.725262165E-1
2.527022220E1,-9.025168419E-1,8.823871613E-1,5.010566711E-1
2.529013766E1,-1.260552168E0,1.092241287E0,1.295990944E-1
2.531000240E1,-8.738877773E-1,1.202139854E0,9.132084846E-1
2.532990829E1,-1.191524744E0,1.331575394E0,3.672460079E0
2.534980881E1,-3.083743572E0,2.283029556E0,6.528602123E0
2.536968777E1,-3.992981195E0,3.286993980E0,6.416419029E0
2.538959027E1,-3.368402004E0,4.120028019E0,4.700563431E0
2.540945626E1,-2.544758797E0,5.841763496E0,4.851956844E0
2.542936157E1,-4.480545998E0,7.875483513E0,4.228872299E0
2.544925355E1,-8.713580132E0,1.034731388E1,-5.542445183E-1
2.546914912E1,-1.134683609E1,1.097721481E1,-5.087344170E0
2.548900261E1,-1.069641590E1,1.018385124E1,-7.862872124E0
2.550891855E1,-7.932050228E0,6.481774330E0,-1.234395790E1
2.552879511E1,-7.768857956E0,-4.089188099E0,-1.461659050E1
2.554870423E1,-9.840148926E0,-2.425570488E1,-6.064186573E0
2.556858287E1,-1.177435303E1,-5.180032349E1,4.857241154E0
2.558848949E1,-9.245417595E0,-5.588203049E1,7.613130569E0
2.560838209E1,9.978094101E0,-2.439459419E1,-8.259531975E0
2.562824001E1,3.865072489E0,-4.536542416E0,-1.787340164E1
2.564815756E1,-1.414040184E1,-6.637118816E0,1.689495087E0
2.566801532E1,-4.278016090E-2,-1.254737568E1,6.342185020E0
2.568790334E1,5.343095779E0,-1.940246010E1,-8.461554527E0
2.570781704E1,6.961073875E-1,-1.140905666E1,-8.363441467E0
2.572770964E1,1.172676563E0,-4.527676582E0,-3.471323490E0
2.574760058E1,1.026666999E0,-2.681084633E0,-2.940407276E0
2.576749891E1,-2.310292721E-1,-8.684804440E-1,-2.889806271E0
2.578738600E1,-1.463675499E0,1.936831474E0,-2.402177811E0
2.580726871E1,-2.685514212E0,2.808117867E0,-1.350731373E0
2.582713470E1,-2.381675243E0,2.398354053E0,1.519751549E-1
2.584704037E1,-1.387380838E0,2.530069351E0,1.225322247E0
2.586693027E1,-3.369064569E0,3.028381824E0,1.285700321E0
2.588682756E1,-4.724610806E0,3.831577778E0,1.469167709E0
2.590670615E1,-3.281174421E0,3.995309353E0,2.989649773E0
2.592659246E1,-1.358712912E0,3.478493214E0,3.581638336E0
2.594650923E1,-1.652558804E0,2.792316437E0,2.802638292E0
2.596641454E1,-2.837250710E0,3.451700211E0,2.523633003E0
2.598627459E1,-2.526768684E0,3.628902435E0,3.178773165E0
2.600617344E1,-1.477623701E0,2.440210342E0,3.721781015E0
2.602602615E1,-2.048550129E0,2.274919510E0,3.365262032E0
2.604594016E1,-3.702481747E0,2.768997192E0,2.514486551E0
2.606581178E1,-4.904466152E0,2.750314713E0,2.573896885E0
2.608570391E1,-4.080037117E0,2.028853416E0,2.864855766E0
2.610558970E1,-2.221500874E0,1.482744217E0,1.432996035E0
2.612547897E1,-1.155690193E0,1.349723816E0,-6.215691566E-2
2.614539204E1,-9.294962883E-1,1.001451492E0,-4.642306566E-1
2.616528079E1,-3.699822426E-1,4.747991562E-1,-1.089811325E-2
2.618516313E1,3.079013824E-1,-2.534618378E-1,1.370668411E-1
2.620503282E1,-1.830077171E-2,-1.253814697E-1,-1.008940935E-1
2.622492720E1,-9.490585327E-1,1.526174545E-1,-6.835949421E-1
2.624481923E1,-8.636782169E-1,1.182079315E-1,-7.823978662E-1
2.626473496E1,-4.517548084E-1,-6.385517120E-2,-2.943079472E-1
2.628462694E1,-3.621046543E-1,2.125558853E-1,2.805948257E-3
2.630451162E1,-7.067389488E-1,4.604120255E-1,8.573079109E-2
2.632441568E1,-5.640645027E-1,3.281173706E-1,1.399097443E-1
2.634426084E1,-1.568658352E-1,7.466888428E-2,1.669434309E-1
2.636417829E1,-3.683445454E-1,3.643617630E-1,1.120306253E-1
2.638409407E1,-6.266391277E-1,7.071361542E-1,-1.693996191E-1
2.640397391E1,-6.623735428E-1,5.842828751E-1,-5.328780413E-1
2.642385438E1,-8.003656864E-1,1.466169357E-1,-2.366355658E-1
2.644373407E1,-6.389048100E-1,1.258707047E-1,-2.232798338E-1
2.646362553E1,-1.953494549E-1,3.414812088E-1,-3.908053637E-1
2.648352720E1,3.400702477E-1,2.339725494E-1,-4.797037840E-1
2.650345157E1,4.934444427E-1,-9.733200073E-2,-4.306616783E-1
2.652331407E1,1.464550495E-1,8.790493011E-2,1.337432861E-1
2.654318511E1,-1.650464535E-1,-3.260345459E-1,6.183528900E-1
2.656310089E1,-2.634336948E-1,-3.876218796E-1,7.971854210E-1
2.658294548E1,-1.059770584E-3,-2.777299881E-1,-8.190989494E-2
2.660284084E1,1.547477245E-1,-1.380071640E-1,-9.243131876E-1
2.662273376E1,2.323644161E-1,-1.678199768E-1,-6.943180561E-1
2.664265490E1,2.707753181E-1,-2.859811783E-1,3.468823433E-2
2.666255886E1,3.809781075E-1,-2.823686600E-1,-1.794941425E-1
2.668246147E1,6.347312927E-1,-6.859779358E-3,-7.062203884E-1
2.670230261E1,6.542761326E-1,9.506130219E-2,-5.139579773E-1
2.672222141E1,4.689974785E-1,-1.396121979E-1,-1.105248928E-1
2.674210496E1,3.771033287E-1,-2.098274231E-1,9.306573868E-2
2.676197678E1,5.154194832E-1,-9.032917023E-2,-2.168400288E-1
2.678186772E1,5.956656933E-1,-5.148315430E-2,-4.269561768E-1
2.680177032E1,2.339572906E-1,7.504749298E-2,-3.521164656E-1
2.682165579E1,2.032923698E-2,1.032352448E-1,-2.930514812E-1
2.684151350E1,1.429221630E-1,-8.380317688E-2,-1.705405712E-1
2.686143704E1,2.152915001E-1,-3.856086731E-2,7.508826256E-2
2.688129370E1,4.732799530E-2,-1.846313477E-2,2.779698372E-2
2.690119334E1,-2.224907875E-1,1.438264847E-1,-1.427278519E-1
2.692110344E1,-4.133136272E-1,2.249050140E-1,-1.014747620E-1
2.694099152E1,-7.906947136E-1,4.032173157E-1,1.288290024E-1
2.696088579E1,-1.230486631E0,5.261478424E-1,3.163132668E-1
2.698074251E1,-1.723362327E0,6.739768982E-1,3.555903435E-1
2.700065792E1,-2.164058208E0,9.662570953E-1,-1.618037224E-1
2.702054772E1,-2.261613369E0,1.167737961E0,-5.441243649E-1
2.704044975E1,-2.660464764E0,1.023509026E0,-7.959175110E-2
2.706031042E1,-2.867347956E0,1.001824379E0,4.841120243E-1
2.708019626E1,-2.644928694E0,1.323255539E0,1.563103199E-1
2.710010058E1,-2.369801998E0,1.598642349E0,-6.946442127E-1
2.712000277E1,-2.256079912E0,1.725592613E0,-8.236527443E-1
2.713986157E1,-1.665899515E0,1.558171272E0,1.567895412E-1
2.715975011E1,-9.949135780E-1,1.436751366E0,1.441576004E0
2.717966298E1,-7.685580254E-1,1.929917336E0,1.710351229E0
2.719953042E1,-9.445583820E-1,1.572694778E0,6.782908440E-1
2.721946079E1,-1.014439583E0,8.824386597E-1,1.417436123E0
2.723932022E1,-2.315410376E0,1.249584198E0,3.809836388E0
2.725922704E1,-4.157395840E0,1.820043087E0,4.134815693E0
2.727910397E1,-4.577369690E0,2.558372021E0,3.549849987E0
2.729900470E1,-3.688717842E0,3.514114380E0,2.925417423E0
2.731889355E1,-3.004601955E0,5.120301247E0,2.437038422E-1
2.733879006E1,-3.525056601E0,6.865596294E0,-2.981915712E0
2.735867678E1,-4.693811417E0,8.030084610E0,-5.273802757E0
2.737856897E1,-5.537919521E0,9.078744888E0,-7.946173191E0
2.739846990E1,-7.804141045E0,9.838246346E0,-9.876974106E0
2.741836292E1,-1.014072800E1,6.606336594E0,-1.044640064E1
2.743824089E1,-8.931882858E0,-2.679619551E0,-1.026401806E1
2.745812444E1,-8.059598923E0,-1.678534508E1,-7.666710854E0
2.747800272E1,-7.628333569E0,-3.896066284E1,1.342755318E0
2.749791246E1,-4.251530170E0,-5.365393448E1,6.794658661E0
2.751779386E1,4.319185257E0,-3.387883759E1,-2.484435081E0
2.753767626E1,3.656535149E0,-6.758306503E0,-1.177605724E1
2.755754970E1,-1.604249763E1,-3.932739735E0,-3.579686165E0
2.757745334E1,-7.695206165E0,-7.055056095E0,6.021366119E0
2.759734652E1,-2.608420610E0,-9.007765770E0,-4.931911469E0
2.761724860E1,4.229973555E-1,-8.824166298E0,-9.114032745E0
2.763712199E1,4.096251488E0,-8.370855331E0,-4.900756359E0
2.765701886E1,1.794186115E0,-1.021350574E1,-1.812604904E0
2.767691360E1,-1.672476381E-1,-7.434278011E0,3.152580261E-1
2.769680272E1,-1.991550326E-1,-3.960651636E0,9.964561462E-2
2.771669438E1,-1.856522322E0,-3.058629751E0,-2.254023552E0
2.773660558E1,-2.281681061E0,-8.502624035E-1,-2.858286381E0
2.775646746E1,-1.814204812E0,1.637968302E0,-2.283890724E0
2.777635595E1,-3.105111599E0,2.245590210E0,-2.732687950E0
2.779625423E1,-2.285652876E0,2.652679443E0,-2.367438316E0
2.781616454E1,-5.018997192E-2,3.256408215E0,-1.133025169E0
2.783603261E1,8.555283546E-1,3.231527805E0,-9.802291393E-1
2.785592147E1,-9.808082581E-1,3.363536358E0,-1.517050266E0
2.787581907E1,-1.954270601E0,4.433702946E0,4.259514809E-1
2.789569042E1,-1.790936470E0,4.786946774E0,3.019639492E0
2.791557917E1,-2.695472479E0,4.102387428E0,2.548913956E0
2.793546553E1,-4.027025223E0,3.643697739E0,6.985440254E-1
2.795536662E1,-4.437478065E0,3.787424088E0,9.335274696E-1
2.797524865E1,-3.668998718E0,4.471211433E0,2.323554993E0
2.799515829E1,-3.450906754E0,4.527121544E0,2.368901968E0
2.801505152E1,-3.644083977E0,4.501981735E0,1.549813986E0
2.803490897E1,-3.500690222E0,3.780558586E0,8.718549013E-1
2.805479501E1,-2.674142838E0,2.934603691E0,9.495376348E-1
2.807471204E1,-2.228096247E0,2.460955620E0,1.141092062E0
2.809457115E1,-2.777342081E0,1.900551796E0,1.053788304E0
2.811446990E1,-2.577675343E0,-9.304523468E-2,2.625874043E0
2.813439444E1,-2.252529621E0,1.461124420E-2,4.186037064E0
2.815424407E1,-1.543876886E0,6.556205750E-1,1.303204298E0
2.817415777E1,-1.111243963E0,1.350663185E0,-9.514206648E-1
2.819402584E1,-1.460342646E0,1.661789894E0,-1.160813808E0
2.821391011E1,-1.849768400E0,1.350147247E0,-8.979530334E-1
2.823379407E1,-2.306104660E0,9.213666916E-1,-9.510517120E-3
2.825370308E1,-2.651821136E0,8.200626373E-1,3.495717049E-1
2.827357792E1,-2.477523804E0,1.074237823E0,3.124409914E-1
2.829349183E1,-1.829674959E0,1.087024689E0,3.826086521E-1
2.831342720E1,-1.568616629E0,8.233633041E-1,4.191246033E-1
2.833326600E1,-1.911437035E0,6.950225830E-1,4.743410349E-1
2.835314251E1,-2.036977530E0,7.355232239E-1,4.525487423E-1
2.837307470E1,-1.736247063E0,5.858926773E-1,5.990414619E-1
2.839292662E1,-1.717229724E0,3.366794586E-1,9.709367752E-1
2.841284319E1,-2.135557652E0,9.598731995E-2,9.606664181E-1
2.843270433E1,-2.466108561E0,1.354217529E-4,4.295265675E-1
2.845261610E1,-2.041808367E0,-2.044773102E-2,8.985590935E-2
2.847251277E1,-1.510623455E0,-7.301330566E-3,2.674195766E-1
2.849244647E1,-1.171012878E0,1.128292084E-2,5.277194977E-1
2.851226011E1,-1.206135273E0,2.316226959E-1,4.075388908E-1
2.853217917E1,-1.269361496E0,2.047185898E-1,5.911827087E-2
2.855210470E1,-7.400937080E-1,4.891319275E-1,-3.433799744E-2
2.857193537E1,2.521834373E-1,1.144309044E0,-9.831786156E-2
2.859182688E1,1.062751770E0,1.511903763E0,-3.475999832E-1
2.861170964E1,1.663104773E0,1.778835297E0,-6.996554136E-1
2.863162808E1,2.276721954E0,2.451681137E0,-9.234523773E-1
2.865151407E1,3.105435610E0,2.844015121E0,-7.743190527E-1
2.867139818E1,3.956612349E0,2.734994888E0,-4.973883629E-1
2.869130589E1,4.731786728E0,2.681325912E0,-4.538373947E-1
2.871119308E1,5.061869621E0,2.630174637E0,-6.550545692E-1
2.873112006E1,4.904169559E0,2.390813828E0,-2.796399593E-1
2.875096964E1,4.542656898E0,1.983907700E0,2.405378819E-1
2.877084282E1,4.288431644E0,1.828339577E0,4.816839695E-1
2.879072542E1,4.426930428E0,1.778147697E0,1.942107677E-1
2.881064829E1,4.763913155E0,1.779408455E0,-1.881992817E-1
2.883055740E1,5.192248344E0,1.551466942E0,-3.143525124E-2
2.885045938E1,5.327725887E0,1.242705345E0,5.307812691E-1
2.887027954E1,4.483940125E0,8.403635025E-1,7.265782356E-1
2.889020089E1,3.432348251E0,1.090736389E-1,2.647924423E-1
2.891009787E1,2.718672752E0,-8.062148094E-1,-2.694156170E-1
2.892997902E1,1.887812138E0,-1.710647583E0,-2.389369011E-1
2.894984881E1,9.518189430E-1,-2.548954964E0,-3.581795692E-1
2.896973084E1,3.456425667E-1,-3.027414799E0,-7.016994953E-1
2.898961063E1,1.530022621E-1,-3.056480408E0,-8.559473753E-1
2.900952011E1,-2.849221230E-1,-2.941070557E0,-1.195143342E0
2.902942641E1,-8.733022213E-1,-2.929098129E0,-1.580797076E0
2.904932235E1,-1.559933901E0,-2.991561890E0,-1.782698035E0
2.906920324E1,-2.293581963E0,-2.783954144E0,-2.040477991E0
2.908907412E1,-2.955334425E0,-2.546610832E0,-2.149621487E0
2.910898568E1,-3.190594435E0,-2.753532410E0,-1.724462867E0
2.912887818E1,-3.140910625E0,-2.729941845E0,-1.341765642E0
2.914876428E1,-3.348762035E0,-2.153380871E0,-1.768727899E0
2.916862037E1,-3.769093037E0,-1.430706978E0,-2.099596024E0
2.918851954E1,-4.255774021E0,-1.040062428E0,-1.745752811E0
2.920843667E1,-4.398022175E0,-9.809927940E-1,-1.157036424E0
2.922832938E1,-4.459433079E0,-6.900982857E-1,-8.212757111E-1
2.924821735E1,-4.102497101E0,1.559371948E-1,-1.115249991E0
2.926811318E1,-3.740166664E0,1.078370094E0,-1.484848857E0
2.928800173E1,-3.500944853E0,1.304944038E0,-1.107447982E0
2.930787183E1,-3.122201443E0,1.489504814E0,-4.823968410E-1
2.932776449E1,-2.555834293E0,2.069016457E0,-2.985465527E-1
2.934763428E1,-2.140640974E0,2.424367905E0,-1.843476295E-2
2.936756141E1,-1.579244852E0,2.507742882E0,3.981587887E-1
2.938745506E1,-1.084065437E0,2.450709343E0,5.946910381E-1
2.940733376E1,-7.535002232E-1,2.180175781E0,1.685124636E0
2.942719714E1,-2.771146297E-1,1.692357063E0,3.822373629E0
2.944710594E1,-8.726820946E-1,1.897892952E0,4.994609833E0
2.946698907E1,-2.347665071E0,3.050021648E0,4.911592484E0
2.948688506E1,-3.273133755E0,5.862344265E0,4.278538704E0
2.950677584E1,-6.618173122E0,9.545413971E0,2.421284676E0
2.952663683E1,-1.159119415E1,1.249558640E1,-2.444615364E0
2.954657813E1,-1.285865879E1,1.569855785E1,-8.388607979E0
2.956646511E1,-1.158327770E1,1.715686989E1,-1.203730392E1
2.958635907E1,-1.126161003E1,1.321863556E1,-1.569670105E1
2.960621022E1,-1.377966785E1,1.700454235E0,-2.012060547E1
2.962611235E1,-1.930076218E1,-1.392959118E1,-1.035213757E1
2.964600454E1,-2.109348869E1,-3.734254074E1,7.867752552E0
2.966589470E1,-1.386366272E1,-6.312953186E1,5.242873192E0
2.968575542E1,4.758277416E0,-5.350391388E1,-7.115013123E0
2.970568110E1,2.154539871E1,-1.375707722E1,-2.198597336E1
2.972556818E1,-1.275283718E1,-7.348972559E-1,-1.141314697E1
2.974546402E1,-9.107374191E0,-3.406991959E0,9.238721848E0
2.976536053E1,-3.810977936E0,-3.233643055E0,-8.283424377E-1
2.978524485E1,-2.220238686E0,-6.673530579E0,-7.109217644E0
2.980510303E1,1.415152907E0,-1.122062778E1,-5.490711689E0
2.982501813E1,2.289950848E0,-1.182677555E1,-1.095746040E0
2.984490626E1,4.056276321E0,-1.009130859E1,1.011728287E0
2.986478470E1,2.082201481E0,-7.493160248E0,8.990211487E-1
2.988469600E1,-2.536517859E0,-2.388205528E0,-6.927518845E-1
2.990459751E1,-4.534770012E0,6.815695763E-1,-2.296854973E0
2.992446657E1,-5.036668777E0,2.962859631E0,-3.133578777E0
2.994435912E1,-5.625989437E0,4.470705032E0,-2.939104557E0
2.996424376E1,-5.022445679E0,4.792509079E0,-1.479265213E0
2.998411589E1,-2.184757948E0,3.530993462E0,4.423441887E-1
3.000402303E1,-3.136110306E-2,2.641077042E0,8.162827492E-1
3.002391845E1,-1.048758507E0,2.761645317E0,1.088927269E0
3.004380688E1,-2.879897594E0,3.284166336E0,2.368919134E0
3.006369928E1,-2.204535246E0,3.410678864E0,5.886479378E0
3.008358141E1,-1.467000484E0,1.922377586E0,5.839875221E0
3.010345079E1,-1.848157883E0,1.675802231E0,3.308030605E0
3.012339720E1,-3.011610270E0,2.041057587E0,1.841748953E0
3.014327641E1,-3.806374788E0,2.079832077E0,2.606457710E0
3.016312105E1,-3.173915386E0,1.633110046E0,4.464898109E0
3.018301678E1,-2.005410671E0,9.381151199E-1,4.025068283E0
3.020290834E1,-2.680578947E0,1.289743423E0,1.743280649E0
3.022280855E1,-2.457036495E0,1.011414528E0,-4.952955246E-2
3.024269907E1,-1.208536625E0,8.219280243E-1,-5.543977022E-1
3.026257522E1,-1.875915527E-1,7.410221100E-1,-1.152815104E0
3.028247053E1,4.464864731E-1,7.539424896E-1,-1.598238468E0
3.030236464E1,1.347720623E-1,4.999074936E-1,-1.476182580E0
3.032226287E1,3.683567047E-4,1.501865387E-1,-1.511779070E0
3.034215188E1,-6.567728519E-1,4.173660278E-1,-1.063772559E0
3.036201683E1,-1.383979321E0,5.791654587E-1,-7.515254021E-1
3.038194246E1,-1.843021512E0,5.143651962E-1,-5.517090559E-1
3.040181506E1,-1.477379560E0,4.437370300E-1,-5.510324240E-1
3.042170678E1,-9.703233242E-1,2.046928406E-1,-8.013479710E-1
3.044157746E1,-6.590139866E-1,2.873306274E-1,-6.171919107E-1
3.046147944E1,-5.593893528E-1,2.421102524E-1,-4.976717234E-1
3.048137303E1,-2.717342377E-1,1.825895309E-1,-7.668366432E-1
3.050125798E1,-4.834699631E-2,2.390451431E-1,-8.505524397E-1
3.052115407E1,-4.742717743E-2,1.660013199E-1,-4.459065199E-1
3.054106631E1,-1.778793335E-1,1.622495651E-1,-6.990647316E-2
3.056091105E1,-1.797356606E-1,3.142108917E-1,-7.022833824E-2
3.058080907E1,-2.287719250E-1,3.016338348E-1,-1.920609474E-1
3.060071136E1,-2.358467579E-1,2.905874252E-1,-2.326900959E-1
3.062061641E1,3.916263580E-3,3.449239731E-1,-1.726307869E-1
3.064052600E1,3.118419647E-2,1.651153564E-1,5.297541618E-2
3.066041568E1,9.056973457E-2,8.848476410E-2,2.993557453E-1
3.068026761E1,9.526419640E-2,6.765651703E-2,8.124661446E-2
3.070014470E1,2.404260635E-2,7.235240936E-2,-1.225018501E-1
3.072008079E1,-2.358655930E-1,2.003650665E-1,2.039906979E-1
3.073994600E1,-2.346220016E-1,1.818952560E-1,4.533421993E-1
3.075984094E1,-1.962516308E-1,1.179695129E-3,8.533096313E-2
3.077971417E1,-1.614112854E-1,-6.593894958E-2,-1.262202263E-1
3.079959756E1,-9.903883934E-2,-4.139709473E-2,-4.665398598E-2
3.081949251E1,-2.463769913E-2,-3.949642181E-2,-9.379172325E-2
3.083939553E1,-2.038621902E-2,-1.633701324E-1,-1.466732025E-1
3.085929402E1,-1.045703888E-2,-1.853160858E-1,-1.461188793E-1
3.087918683E1,-1.022782326E-1,-5.104160309E-2,-2.253625393E-1
3.089908194E1,-1.413059235E-2,-7.371711731E-2,-3.236508369E-1
3.091896058E1,1.231288910E-1,-1.915149689E-1,-2.649257183E-1
3.093884584E1,2.257518768E-1,-1.459312439E-1,-2.018043995E-1
3.095873667E1,2.581489086E-1,-1.370363235E-1,-2.257630825E-1
3.097861449E1,6.708621979E-2,-1.589546204E-1,-1.065387726E-1
3.099852016E1,-1.324343681E-1,-1.339902878E-1,-1.567459106E-1
3.101841360E1,-9.032630920E-2,-5.721092224E-3,-2.145311832E-1
3.103830496E1,9.261226654E-2,7.737445831E-2,-2.537515163E-1
3.105819298E1,5.833816528E-2,5.699443817E-2,-9.065151215E-2
3.107810511E1,-1.702229977E-1,-1.988124847E-2,1.457428932E-2
3.109795553E1,-5.285320282E-1,1.044397354E-1,1.647686958E-2
3.111784897E1,-7.864151001E-1,3.428869247E-1,8.073019981E-2
3.113774412E1,-7.090630531E-1,4.704036713E-1,1.751549244E-1
3.115764579E1,-8.478274345E-1,5.725936890E-1,4.920558929E-1
3.117751542E1,-1.421505451E0,9.560222626E-1,6.089153290E-1
3.119742714E1,-2.105551243E0,1.479004860E0,7.345242500E-1
3.121730527E1,-2.553219080E0,1.806147575E0,1.074605227E0
3.123720516E1,-2.736344576E0,2.233519554E0,1.269274712E0
3.125710350E1,-2.717305899E0,2.829802513E0,1.264380217E0
3.127697542E1,-2.763653994E0,3.035148621E0,1.133852005E0
3.129687048E1,-2.534739494E0,2.915245056E0,1.554256201E0
3.131673542E1,-1.932635546E0,2.790966034E0,2.227399349E0
3.133663261E1,-1.910474539E0,2.982938766E0,3.094341516E0
3.135655110E1,-2.674545527E0,3.646875381E0,4.287764549E0
3.137644324E1,-2.999866009E0,4.102973461E0,5.060942650E0
3.139631574E1,-2.576136589E0,4.911692142E0,4.824625492E0
3.141621089E1,-4.736701012E0,7.393253803E0,4.070167065E0
3.143606808E1,-7.317781448E0,1.075656700E1,1.388174057E0
3.145598365E1,-7.022583961E0,1.246474552E1,-3.780851603E0
3.147587542E1,-7.530297279E0,1.179201412E1,-9.256701469E0
3.149575834E1,-7.780505180E0,8.543586731E0,-1.325767803E1
3.151566089E1,-8.387518883E0,2.736871243E0,-1.363111877E1
3.153551876E1,-1.045194054E1,-6.677720070E0,-1.124400330E1
3.155543652E1,-1.217730522E1,-2.252071190E1,-4.547271252E0
3.157530938E1,-1.078667164E1,-4.203679276E1,2.850698471E0
3.159518964E1,-4.341930866E0,-4.739281845E1,3.188228607E0
3.161509011E1,1.286930084E1,-2.586719513E1,-7.891284943E0
3.163498183E1,-2.460869789E0,-7.012581348E0,-1.564480877E1
3.165488600E1,-1.751004219E1,-2.550592899E0,1.725605965E0
3.167475490E1,-2.830414772E0,-6.080022335E0,6.750142097E0
3.169465657E1,-1.657981038E0,-1.351722050E1,-6.775080204E0
3.171454813E1,-3.588283539E0,-8.139095306E0,-8.379617691E0
3.173445287E1,1.278881073E0,-5.775767803E0,-4.502299786E0
3.175432313E1,5.741029739E0,-5.716627121E0,-2.805905342E0
3.177421355E1,7.084407330E0,-4.474505424E0,-8.216271400E-1
3.179409376E1,5.103852272E0,-3.027987719E0,2.912569046E-2
3.181399766E1,1.820777893E0,-1.839432478E0,-7.323827744E-1
3.183388813E1,-3.578863144E-1,-1.149145126E0,-1.405848980E0
3.185378553E1,-1.709474564E0,1.195786476E0,-5.910763741E-1
3.187368246E1,-2.622695923E0,3.266052723E0,1.131051064E0
3.189354100E1,-2.790726423E0,2.908009529E0,1.198418140E0
3.191342834E1,-2.875606060E0,1.885510921E0,1.213249445E0
3.193339975E1,-2.589272022E0,2.415269852E0,2.237404346E0
3.195324282E1,-3.026740313E0,2.832631111E0,2.411715984E0
3.197309751E1,-4.602766037E0,2.725562096E0,1.899339199E0
3.199301365E1,-4.511226177E0,2.497982025E0,3.024907112E0
3.201290251E1,-3.368981123E0,2.201392174E0,4.189031124E0
3.203277001E1,-3.045272350E0,1.725931168E0,3.536589622E0
3.205267516E1,-3.162170649E0,2.292014122E0,2.759005070E0
3.207257516E1,-3.191453934E0,2.200434685E0,1.915021896E0
3.209245449E1,-2.185305595E0,1.858230591E0,1.845100880E0
3.211234730E1,-1.196441293E0,1.370128632E0,1.514883041E0
3.213223756E1,-1.215812802E0,1.240500450E0,8.618440628E-1
3.215211042E1,-1.790701032E0,9.443540573E-1,1.414151192E-1
3.217201058E1,-1.956185222E0,4.069175720E-1,4.772121906E-1
3.219188600E1,-1.440117598E0,-1.762142181E-1,1.206420183E0
3.221177709E1,-6.654863358E-1,-2.452001572E-1,7.103428841E-1
3.223166042E1,-2.048187256E-1,-1.114349365E-1,-9.779691696E-2
3.225158631E1,-2.912695408E-1,-1.028404236E-1,-6.302556992E-1
3.227146240E1,-3.718268871E-1,1.852302551E-1,-7.449160814E-1
3.229134725E1,-5.275020599E-1,4.765157700E-1,-7.095811367E-1
3.231122975E1,-7.302525043E-1,6.338205338E-1,-7.870944738E-1
3.233114235E1,-7.772908211E-1,5.125579834E-1,-7.010635138E-1
3.235099600E1,-7.871525288E-1,4.010696411E-1,-3.976386786E-1
3.237090423E1,-9.804962873E-1,3.644037247E-1,-1.196106672E-1
3.239082048E1,-9.533267021E-1,4.742202759E-1,6.511378288E-2
3.241071334E1,-4.377686977E-1,5.739660263E-1,-4.434907436E-2
3.243059167E1,-1.173429489E-1,4.799079895E-1,-1.501396894E-1
3.245049933E1,-1.274325848E-1,2.357730865E-1,6.128549576E-2
3.247039667E1,-2.102243900E-1,1.130580902E-1,2.162123919E-1
3.249025980E1,-2.888851166E-1,2.465505600E-1,-9.431624413E-2
3.251015110E1,1.761937141E-2,2.834854126E-1,-4.396795034E-1
3.253003376E1,2.524993420E-1,2.356348038E-1,-4.017859697E-1
3.254990647E1,2.215678692E-1,9.879398346E-2,-2.571930885E-1
3.256979923E1,-7.855892181E-3,1.065855026E-1,-1.892508268E-1
3.258970225E1,5.060195923E-2,2.649383545E-1,-2.287576199E-1
3.260959834E1,1.314194202E-1,2.592792511E-1,-1.469069719E-1
3.262948417E1,2.034082413E-1,1.515388489E-1,1.071023941E-2
3.264938641E1,2.525022030E-1,-3.997421265E-2,-2.735847235E-1
3.266925266E1,2.718255520E-1,-7.398319244E-2,-5.135867596E-1
3.268912985E1,2.856147289E-1,-8.524894714E-2,-3.602610826E-1
3.270906079E1,3.122544289E-1,-1.619062424E-1,-6.250977516E-2
3.272893287E1,2.851264477E-1,-8.627223969E-2,-1.479169130E-1
3.274881667E1,3.084731102E-2,2.404022217E-2,-2.615047693E-1
3.276872996E1,-2.133090496E-1,3.303718567E-2,-2.098830938E-1
3.278861694E1,-1.988968849E-1,-3.133678436E-2,-5.667018890E-2
3.280849834E1,-2.008042336E-1,-4.916477203E-2,8.609890938E-2
3.282838844E1,-1.507768631E-1,-1.267089844E-1,-1.173018217E-1
3.284827652E1,-3.929257393E-2,-7.911682129E-2,-2.773886919E-1
3.286816636E1,-9.061598778E-2,-8.922386169E-2,-1.796635389E-1
3.288806412E1,-3.283696175E-1,-1.593647003E-1,7.102513313E-2
3.290794240E1,-3.803000450E-1,-9.585857391E-2,2.017264366E-1
3.292784423E1,8.485770226E-2,-3.566265106E-2,-4.396986961E-2
3.294772829E1,5.677728653E-1,-1.594924927E-1,-2.542216778E-1
3.296759542E1,6.327641010E-1,-2.683954239E-1,-7.594430447E-2
3.298751371E1,6.126580238E-1,-3.569917679E-1,2.758216858E-2
3.300741027E1,4.435496330E-1,-3.093833923E-1,1.379609108E-2
3.302727370E1,3.633439541E-1,-2.478857040E-1,-7.759797573E-2
3.304718527E1,3.554394245E-1,-1.951160431E-1,-2.082765102E-1
3.306708996E1,1.651422977E-1,-1.435527802E-1,-1.074162722E-1
3.308695344E1,-1.243863106E-1,7.534980774E-3,1.385159492E-1
3.310683792E1,-3.881726265E-1,1.540222168E-1,1.862280369E-1
3.312671584E1,-5.830438137E-1,4.080448151E-1,-6.445443630E-2
3.314662845E1,-8.524165154E-1,6.966390610E-1,-2.405881882E-3
3.316651949E1,-1.438804388E0,1.018086433E0,4.016194344E-1
3.318640860E1,-2.117423534E0,1.367752075E0,4.922993183E-1
3.320630428E1,-2.415560722E0,1.843408585E0,2.036173344E-1
3.322617709E1,-2.508420467E0,2.234292984E0,8.671903610E-2
3.324608214E1,-2.608013153E0,2.299929619E0,2.546236515E-1
3.326595813E1,-2.436110020E0,2.220929146E0,3.070380688E-1
3.328585907E1,-1.722708344E0,2.324479103E0,4.119973183E-1
3.330575360E1,-1.129515529E0,2.976969719E0,8.868951797E-1
3.332562667E1,-2.143408060E0,4.249476433E0,1.675665379E0
3.334552235E1,-4.396306038E0,4.786204338E0,1.657080412E0
3.336546803E1,-5.537705898E0,5.016770363E0,-7.059988976E-1
3.338531808E1,-6.311879158E0,5.261111259E0,-3.753355026E0
3.340517157E1,-8.029202461E0,6.702489853E0,-5.394940376E0
3.342508870E1,-1.005983639E1,8.831401825E0,-5.919075489E0
3.344497506E1,-1.084354019E1,9.733325958E0,-8.048587799E0
3.346486287E1,-1.051406193E1,8.968398094E0,-1.046480083E1
3.348473985E1,-7.940612316E0,5.978141785E0,-1.235068417E1
3.350465131E1,-6.531806469E0,1.761584759E0,-1.384060001E1
3.352453360E1,-1.021906662E1,-6.154706955E0,-7.580424309E0
3.354445292E1,-1.353662872E1,-2.016350365E1,8.329429626E0
3.356430136E1,-8.798233032E0,-3.721627045E1,4.658184052E0
3.358418230E1,3.878529072E-1,-4.908869553E1,-2.216857433E0
3.360408282E1,1.376969719E1,-3.362311935E1,-6.965069771E0
3.362398923E1,1.026240349E0,-7.701052666E0,-5.938069344E0
3.364388444E1,-1.021842670E1,-6.108335495E0,4.166479111E-1
3.366377444E1,-2.157759190E0,-6.671648026E0,4.141380310E0
3.368366011E1,-1.895023584E0,-8.229876518E0,-2.587432384E0
3.370351912E1,-1.797664881E0,-8.442119598E0,-3.813829899E0
3.372341839E1,-1.322278142E0,-8.690435410E0,-6.158933640E-1
3.374332964E1,-3.248767376E0,-9.566617012E0,4.594182968E-1
3.376321850E1,-2.712736607E0,-8.133337975E0,-7.087926865E-1
3.378308110E1,-1.035247803E0,-5.690680504E0,-2.692769051E0
3.380296584E1,-3.709017038E-1,-3.021171331E0,-3.471366405E0
3.382288568E1,-1.948303938E0,-5.093154907E-1,-2.759026527E0
3.384277344E1,-2.919504166E0,1.331071854E0,-2.930315018E0
3.386266178E1,-2.936299324E0,1.862672806E0,-3.387718916E0
3.388255548E1,-3.580279350E0,2.554343224E0,-2.661468029E0
3.390247173E1,-2.865637541E0,3.421139717E0,2.288579941E-2
3.392231626E1,-1.663659573E0,3.509778500E0,1.867445469E0
3.394223042E1,-2.382968187E0,2.995110989E0,6.280713081E-1
3.396211459E1,-2.455608368E0,3.370641232E0,-3.080554008E-1
3.398198319E1,-2.222910643E0,4.443480492E0,7.511577606E-1
3.400189756E1,-2.033870220E0,4.566552162E0,2.957514763E0
3.402177334E1,-1.748986959E0,3.413491249E0,2.760386467E0
3.404167011E1,-2.298727036E0,2.830229759E0,6.944139004E-1
3.406155574E1,-2.844208717E0,2.671613693E0,4.718852043E-2
3.408145303E1,-3.032577276E0,2.839214325E0,9.255266190E-1
3.410130558E1,-2.962404490E0,2.141520500E0,1.774530649E0
3.412120365E1,-2.391929626E0,1.658664703E0,1.576324463E0
3.414109584E1,-2.101662159E0,1.209981918E0,3.985438347E-1
3.416099308E1,-2.038885832E0,8.587799072E-1,-2.526144981E-1
3.418089381E1,-1.490513802E0,8.622627258E-1,3.597366810E-1
3.420078266E1,-1.351354837E0,5.199003220E-1,1.172082424E0
3.422066412E1,-1.260650277E0,-5.777997971E-1,1.885813713E0
3.424057402E1,-8.849610090E-1,-7.961225510E-1,1.902265310E0
3.426044282E1,-7.204127312E-1,1.438999176E-1,8.615751266E-1
3.428034511E1,-5.693917274E-1,4.969339371E-1,-8.380876780E-1
3.430024016E1,-1.879622936E-1,5.917177200E-1,-1.479044795E0
3.432010876E1,-1.679320335E-1,6.281347275E-1,-1.014521718E0
3.434000928E1,-4.818627834E-1,3.730564117E-1,-4.577965736E-1
3.435989511E1,-3.643701077E-1,2.955074310E-1,-1.043074131E-1
3.437979673E1,-3.544070721E-1,6.028671265E-1,4.118728638E-2
3.439970412E1,-3.516800404E-1,5.993175507E-1,-1.669770479E-1
3.441954589E1,-2.510337830E-1,2.938528061E-1,2.206981182E-2
3.443945610E1,-3.020002842E-1,1.204671860E-1,2.062482834E-1
3.445937277E1,-5.127108097E-1,1.531562805E-1,-3.789663315E-3
3.447925579E1,-4.639151096E-1,2.875289917E-1,-7.472085953E-2
3.449911996E1,-3.119366169E-1,3.069391251E-1,-2.588156462E-1
3.451902876E1,-1.174855232E-1,2.233057022E-1,-2.792942524E-1
3.453891792E1,-1.232161522E-1,1.036853790E-1,1.117250919E-1
3.455879313E1,-6.731033325E-2,-6.398010254E-2,-4.805302620E-2
3.457867407E1,1.303911209E-3,8.189201355E-3,-3.220163584E-1
3.459857022E1,-1.682267189E-1,1.590051651E-1,-2.368407249E-1
3.461847272E1,-1.235318184E-2,1.749610901E-1,-9.342968464E-2
3.463837647E1,5.045962334E-2,1.190986633E-1,-3.845620155E-2
3.465827006E1,-9.600663185E-2,8.205413818E-3,-1.825119257E-1
3.467813740E1,-1.008386612E-1,-1.222820282E-1,-2.496908903E-1
3.469803839E1,1.744890213E-2,-1.430435181E-1,-1.174670458E-1
3.471790282E1,-1.606678963E-2,-9.215641022E-2,-2.020995617E-1
3.473781370E1,-1.002800465E-1,4.976749420E-2,-2.250914574E-1
3.475770173E1,-9.782314301E-2,6.222534180E-2,-1.654456854E-1
3.477757594E1,6.294870377E-2,-5.562305450E-2,-1.167905331E-1
3.479749277E1,7.797479630E-3,-1.069908142E-1,-2.132391930E-1
3.481739527E1,2.433061600E-3,-2.904129028E-2,-3.017137051E-1
3.483725115E1,2.313470840E-2,6.531620026E-2,-1.995239258E-1
3.485713287E1,-1.208257675E-2,-1.274585724E-2,7.778859138E-2
3.487704209E1,-2.171595097E-1,-1.226835251E-1,3.305220604E-1
3.489694079E1,-4.758689404E-1,-2.410697937E-2,1.893017292E-1
3.491683068E1,-5.386347771E-1,1.812391281E-1,-1.177217960E-1
3.493670975E1,-4.542436600E-1,2.359323502E-1,-1.161527634E-2
3.495662683E1,-2.456073761E-1,9.621620178E-2,1.948640347E-1
3.497650683E1,-2.652602196E-1,3.802394867E-2,9.319806099E-2
3.499642277E1,-4.705331326E-1,2.119541168E-1,-9.299683571E-2
3.501628240E1,-5.306351185E-1,2.769794464E-1,-4.252386093E-2
3.503615678E1,-5.593156815E-1,2.282304764E-1,2.243564129E-1
3.505607370E1,-1.047034025E0,4.498128891E-1,4.032225609E-1
3.507594615E1,-1.606382847E0,8.661527634E-1,2.113089561E-1
3.509584970E1,-1.777941465E0,9.148454666E-1,-2.036507130E-1
3.511569324E1,-1.602558613E0,8.119268417E-1,-2.477934361E-1
3.513562287E1,-1.649291873E0,8.570261002E-1,-2.188587189E-2
3.515551444E1,-1.777004719E0,9.772739410E-1,1.637983322E-2
3.517538397E1,-1.589583039E0,1.227102280E0,1.533734798E-1
3.519526110E1,-1.645452142E0,1.503418922E0,6.501035690E-1
3.521514709E1,-1.694507599E0,1.838510513E0,1.587248802E0
3.523506001E1,-1.322989821E0,1.927344322E0,2.213672638E0
3.525496068E1,-1.166815758E0,1.775955200E0,2.104854822E0
3.527482574E1,-2.228916168E0,1.998672485E0,2.158324957E0
3.529471813E1,-3.627618790E0,3.081097603E0,1.709602833E0
3.531463704E1,-4.705717087E0,3.794663429E0,9.360404015E-1
3.533453584E1,-5.753966331E0,4.789522171E0,-4.795265198E-2
3.535443381E1,-6.458201408E0,7.174413681E0,-1.925318718E0
3.537428209E1,-6.796103477E0,9.327352524E0,-4.331668377E0
3.539415912E1,-9.489386559E0,1.026621532E1,-5.974661350E0
3.541406022E1,-1.179150772E1,9.786975861E0,-6.997074604E0
3.543395746E1,-9.954610825E0,6.657960415E0,-6.501162052E0
3.545385032E1,-7.660708904E0,-6.529221535E-1,-5.072278023E0
3.547372928E1,-6.454485416E0,-1.341560650E1,-8.580646515E-1
3.549361115E1,-5.627819061E0,-3.109752655E1,8.028774261E-1
3.551350282E1,1.142978668E0,-4.441127014E1,-2.734326363E0
3.553343620E1,1.005132675E1,-4.000537491E1,-2.751622677E0
3.555330063E1,1.508228016E1,-1.287987804E1,-5.517347336E0
3.557319355E1,-6.720093250E0,-7.464939356E-1,-4.039316654E0
3.559310058E1,-1.578430939E1,-6.448451519E0,2.405015945E0
3.561298339E1,-2.953074694E0,-7.353564262E0,2.407490730E0
3.563286548E1,-2.702055871E-1,-8.939574242E0,-4.158690929E0
3.565272787E1,1.872571945E0,-7.828157425E0,-3.866631985E0
3.567262709E1,6.467864037E0,-7.881004333E0,-6.204204559E-1
3.569254626E1,5.407693863E0,-8.433145523E0,7.811737061E-1
3.571245673E1,2.576396465E0,-7.323895931E0,5.441932678E-1
3.573234657E1,4.352731705E-1,-4.604384422E0,-3.260993958E-2
3.575220058E1,-1.103839874E0,-2.585198402E0,-4.139065742E-1
3.577207152E1,-1.960740328E0,-1.552218199E0,-1.002656460E0
3.579198339E1,-2.368889332E0,-5.424251556E-1,-1.899808884E0
3.581183850E1,-2.716920614E0,7.609806061E-1,-1.928466797E0
3.583175537E1,-3.752894402E0,2.064151764E0,-1.005413055E0
3.585164287E1,-4.018089771E0,2.153245449E0,3.572993279E-1
3.587151829E1,-2.932212353E0,1.955484867E0,9.390742779E-1
3.589144136E1,-2.099934101E0,2.728641510E0,8.253333569E-1
3.591130970E1,-2.525900841E0,2.893966675E0,8.956050873E-1
3.593120917E1,-3.760935545E0,2.978263855E0,1.413291216E0
3.595110964E1,-3.817071438E0,3.681926727E0,2.481008530E0
3.597098074E1,-2.987304688E0,3.631739616E0,2.163704395E0
3.599084636E1,-2.498530626E0,2.934723854E0,1.262780190E0
3.601075834E1,-2.738491058E0,2.300295830E0,1.137112141E0
3.603064662E1,-3.054224968E0,1.790877342E0,1.376347303E0
3.605054344E1,-2.636847496E0,1.668470383E0,1.922835112E0
3.607049787E1,-1.910675287E0,1.300575256E0,1.158736229E0
3.609031470E1,-1.523132086E0,8.391170502E-1,-3.471090794E-1
3.611019136E1,-1.689896703E0,-1.968193054E-2,5.216257572E-1
3.613008313E1,-2.369492531E0,-8.905487061E-1,2.958654165E0
3.614997261E1,-2.150359869E0,-5.590009689E-1,3.145854235E0
3.616985105E1,-1.153940797E0,5.431461334E-2,4.064838886E-1
3.618976303E1,-6.303075552E-1,4.847517014E-1,-1.168657422E0
3.620964444E1,-5.697798729E-1,6.376867294E-1,-1.115451097E0
3.622953053E1,-7.624580860E-1,6.144599915E-1,-5.436043739E-1
3.624943308E1,-1.110133410E0,2.601509094E-1,-1.159334183E-2
3.626933563E1,-1.382979393E0,1.066846848E-1,2.405250072E-1
3.628919667E1,-1.187211275E0,1.728601456E-1,-9.632349014E-2
3.630909303E1,-6.907120943E-1,2.729330063E-1,-5.798418522E-1
3.632897511E1,-4.228805304E-1,1.773986816E-1,-4.701783657E-1
3.634889162E1,-4.879086018E-1,2.806472778E-2,-2.565574646E-1
3.636878266E1,-6.495522261E-1,-1.195144653E-2,-3.455455303E-1
3.638868949E1,-6.448806524E-1,2.163734436E-1,-4.681496620E-1
3.640856397E1,-3.757818937E-1,3.945045471E-1,-5.552551746E-1
3.642845344E1,-1.518925428E-1,3.977012634E-1,-2.136867046E-1
3.644834438E1,-1.481072903E-1,1.890554428E-1,1.500349045E-1
3.646822386E1,-2.991189957E-1,1.828193665E-2,7.103776932E-2
3.648812152E1,-1.975002289E-1,6.839561462E-2,-9.512495995E-2
3.650799251E1,-2.650535107E-2,2.336988449E-1,-3.606843948E-2
3.652790350E1,2.139581442E-1,1.689348221E-1,4.159879684E-2
3.654779261E1,3.284190893E-1,7.346248627E-2,-7.517933846E-2
3.656766844E1,3.197548389E-1,9.229755402E-2,-1.824309826E-1
3.658755292E1,4.606513977E-1,1.528320312E-1,-1.717066765E-1
3.660744115E1,5.531008244E-1,9.611988068E-2,-1.402332783E-1
3.662735496E1,4.381234646E-1,-3.046131134E-2,-7.780075073E-2
3.664722480E1,3.762211800E-1,-5.909824371E-2,-2.660219669E-1
3.666714329E1,4.908473492E-1,-4.921722412E-2,-4.417266846E-1
3.668702694E1,5.645215511E-1,-9.428405762E-2,-3.319535255E-1
3.670692454E1,4.990448952E-1,-1.683320999E-1,-1.927797794E-1
3.672679829E1,4.122679234E-1,-1.636323929E-1,-2.078323364E-1
3.674668084E1,3.801875114E-1,-9.412002563E-2,-2.265243530E-1
3.676660720E1,2.794218063E-1,-3.443241119E-2,-1.594486237E-1
3.678650032E1,1.829252243E-1,1.708688736E-1,-1.287276745E-1
3.680637730E1,-3.860878944E-2,3.454179764E-1,-2.657151222E-2
3.682626740E1,-3.357566595E-1,3.437299728E-1,1.915411949E-1
3.684614126E1,-2.678492069E-1,2.388277054E-1,1.296021938E-1
3.686600428E1,-6.730723381E-2,2.100734711E-1,-2.045161724E-1
3.688592350E1,-5.643653870E-2,2.027425766E-1,-3.051228523E-1
3.690581574E1,-2.279131413E-1,1.486053467E-1,-1.195478439E-1
3.692571110E1,-3.950369358E-1,7.337856293E-2,-7.077884674E-2
3.694557006E1,-4.809867144E-1,1.191911697E-1,-2.161536217E-1
3.696549131E1,-3.315141201E-1,1.292629242E-1,-3.086917400E-1
3.698540621E1,-1.640760899E-1,4.146289825E-2,-2.111425400E-1
3.700527209E1,-2.106204033E-1,1.881599426E-2,-1.517713070E-1
3.702515886E1,-4.318432808E-1,1.616744995E-1,-2.657361031E-1
3.704503959E1,-6.601483822E-1,2.461385727E-1,-2.373526096E-1
3.706493579E1,-7.175629139E-1,1.142282486E-1,-7.800817490E-2
3.708483360E1,-4.405826330E-1,-7.900238037E-3,-7.905268669E-2
3.710471386E1,-3.483905792E-1,1.626787186E-1,-2.633171082E-1
3.712461746E1,-6.135460138E-1,3.214445114E-1,-3.295383453E-1
3.714451037E1,-8.921428919E-1,2.620906830E-1,2.863907814E-2
3.716441949E1,-9.236774445E-1,1.699733734E-1,2.094459534E-1
3.718426688E1,-9.375942945E-1,1.838293076E-1,6.009697914E-2
3.720413881E1,-9.707391262E-1,4.035358429E-1,3.981590271E-4
3.722404063E1,-9.866935015E-1,5.913391113E-1,1.191928387E-1
3.724392959E1,-8.180178404E-1,5.923089981E-1,5.659494400E-1
3.726383344E1,-4.015679359E-1,5.151824951E-1,1.097503424E0
3.728370876E1,-1.627495289E-1,5.378389359E-1,1.277426004E0
3.730361105E1,-6.573629379E-1,4.432811737E-1,1.024404526E0
3.732350334E1,-1.193490028E0,4.513053894E-1,1.805978775E0
3.734345209E1,-2.207829237E0,8.907566071E-1,3.359053135E0
3.736325844E1,-3.470164537E0,1.809876442E0,4.103337288E0
3.738317084E1,-4.609416962E0,2.419024467E0,2.802192211E0
3.740306214E1,-5.258115768E0,3.356817245E0,4.689626694E-1
3.742295844E1,-6.396743298E0,5.419816971E0,-1.193771362E0
3.744282959E1,-9.282711983E0,8.556474686E0,-2.613269567E0
3.746271824E1,-1.293905735E1,1.114168167E1,-6.591288567E0
3.748260370E1,-1.520998383E1,1.156871223E1,-1.131210423E1
3.750252891E1,-1.323250866E1,8.186811447E0,-1.425035763E1
3.752243475E1,-8.205828667E0,3.470668793E-1,-1.224556732E1
3.754239720E1,-8.379373550E0,-1.294543362E1,-4.833553314E0
3.756215694E1,-1.283661461E1,-3.196958923E1,3.006778717E0
3.758209756E1,-7.594916344E0,-4.975110245E1,3.266002655E0
3.760195256E1,6.260161400E0,-4.909457779E1,3.077573776E0
3.762185313E1,2.441413116E1,-1.614640427E1,-8.499320984E0
3.764175162E1,-5.398538113E0,-4.172605991E0,-1.343135262E1
3.766162990E1,-1.567677879E1,-7.098271847E0,5.376053333E0
3.768151964E1,5.030074120E-1,-5.950506210E0,9.035631180E0
3.770141610E1,-3.124841690E0,-8.907484055E0,-4.853784561E0
3.772128006E1,-1.942742348E0,-6.734498501E0,-5.794278145E0
3.774117449E1,1.816332102E0,-7.555284500E0,-3.373531342E0
3.776110235E1,2.485182285E0,-9.243583679E0,-1.530494690E0
3.778096397E1,7.254372239E-1,-8.393977165E0,-1.045551300E-1
3.780086678E1,-6.205042601E-1,-5.833364487E0,-1.215095520E0
3.782073548E1,-2.591342449E0,-3.076409578E0,-3.240583420E0
3.784064407E1,-3.610497475E0,-3.163411617E-1,-4.627022266E0
3.786054829E1,-3.585140944E0,1.565974236E0,-4.647981167E0
3.788045272E1,-2.814932823E0,2.131280422E0,-3.462023735E0
3.790030053E1,-1.193613529E0,1.812264919E0,-1.357247829E0
3.792019949E1,2.722406387E-1,1.574179173E0,1.778883934E-1
3.794009678E1,-1.362652779E-1,2.122256756E0,1.089319706E0
3.795998027E1,-2.125912428E0,2.134841919E0,1.339136124E0
3.797988339E1,-3.241695881E0,2.380962372E0,2.275283337E0
3.799976548E1,-3.175614119E0,2.943996429E0,3.746892691E0
3.801962662E1,-3.620033026E0,3.204463005E0,3.311609030E0
3.803951282E1,-4.063957691E0,3.434201241E0,2.097186565E0
3.805943756E1,-3.385106802E0,3.259810448E0,2.777946949E0
3.807934199E1,-2.275249720E0,2.658745766E0,3.862204313E0
3.809917792E1,-1.633212328E0,2.381035805E0,3.491334200E0
3.811909657E1,-1.333122134E0,2.212558746E0,2.378288507E0
3.813895355E1,-1.864016533E0,1.643226624E0,1.096709728E0
3.815887001E1,-2.721222401E0,2.835474014E-1,1.003046751E0
3.817875798E1,-2.677243710E0,-3.050470352E-1,2.449900150E0
3.819863079E1,-1.615869284E0,-2.018480301E-1,1.763498306E0
3.821852287E1,-4.807443619E-1,-1.288728714E-1,-6.121330261E-1
3.823843194E1,1.601228714E-1,2.128963470E-1,-1.735620499E0
3.825832355E1,3.634262085E-2,4.343910217E-1,-1.479846597E0
3.827820480E1,-5.757522583E-1,4.305639267E-1,-5.414330959E-1
3.829808386E1,-1.052946329E0,3.122844696E-1,-7.649087906E-2
3.831798386E1,-1.142450690E0,2.510185242E-1,-9.193706512E-2
3.833788641E1,-8.653788567E-1,4.444208145E-1,-1.091194153E-1
3.835774865E1,-4.308345318E-1,3.503646851E-1,-7.807517052E-2
3.837765126E1,-3.798029423E-1,1.997451782E-1,3.065793514E-1
3.839754975E1,-5.748245716E-1,1.372060776E-1,3.546082973E-1
3.841745652E1,-6.496212482E-1,3.876514435E-1,1.790111065E-1
3.843731011E1,-5.523033142E-1,4.853630066E-1,1.844782829E-1
3.845721277E1,-2.968902588E-1,3.830795288E-1,4.548549652E-2
3.847712277E1,-2.014617920E-1,4.184360504E-1,-8.142685890E-2
3.849699048E1,-2.845308781E-1,3.440399170E-1,-2.327315807E-1
3.851688813E1,-6.989049911E-2,6.153106689E-3,-2.057406902E-1
3.853678272E1,2.653365135E-1,-1.875991821E-1,-9.117460251E-2
3.855666459E1,3.818545341E-1,-2.813320160E-1,-1.526296139E-1
3.857659110E1,2.408041954E-1,-1.793050766E-1,-4.020640850E-1
3.859646777E1,1.997611523E-1,-1.781415939E-1,-5.411505699E-1
3.861632933E1,3.002746105E-1,-2.867136002E-1,-3.147716522E-1
3.863621865E1,3.393046856E-1,-3.674058914E-1,-2.031977177E-1
3.865613454E1,4.281246662E-1,-2.683525085E-1,-2.962315083E-1
3.867601386E1,5.889048576E-1,-2.886123657E-1,-3.261685371E-1
3.869590964E1,9.015929699E-1,-4.105339050E-1,-2.866959572E-1
3.871579423E1,9.488322735E-1,-3.989009857E-1,-1.464247704E-1
3.873568766E1,5.840356350E-1,-2.720003128E-1,-1.032004356E-1
3.875555136E1,2.706315517E-1,-2.215108871E-1,-3.001093864E-2
3.877544506E1,4.613213539E-1,-3.634462357E-1,9.334588051E-2
3.879532772E1,7.920272350E-1,-3.329868317E-1,-9.173893929E-2
3.881524777E1,7.975714207E-1,-7.801151276E-2,4.947900772E-3
3.883513662E1,5.846285820E-1,1.244163513E-2,2.632298470E-1
3.885503266E1,5.138721466E-1,-1.148300171E-1,2.489500046E-1
3.887489595E1,6.475791931E-1,-1.357707977E-1,1.612505913E-1
3.889481053E1,4.274077415E-1,4.946804047E-2,1.185979843E-1
3.891468423E1,2.192835808E-1,5.330276489E-2,3.209543228E-2
3.893461485E1,4.583220482E-1,-1.331892014E-1,-6.002950668E-2
3.895448673E1,5.526180267E-1,-1.851844788E-1,-1.959757805E-1
3.897434730E1,2.683448792E-1,-1.305160522E-1,-2.531752586E-1
3.899426068E1,7.093429565E-2,-3.005218506E-2,-1.950407028E-1
3.901415246E1,2.323660851E-1,-1.384572983E-1,-1.057224274E-1
3.903403360E1,3.601908684E-1,-2.697744370E-1,-1.108365059E-1
3.905391115E1,3.906440735E-1,-2.981576920E-1,-1.983451843E-1
3.907380261E1,1.174342632E-1,-2.609653473E-1,-1.138725281E-1
3.909371464E1,-2.726709843E-1,-3.650922775E-1,-1.014413834E-1
3.911359980E1,-3.071990013E-1,-4.906225204E-1,-2.544414997E-1
3.913349063E1,-2.021589279E-1,-4.905242920E-1,-4.526116848E-1
3.915343243E1,-3.210608959E-1,-2.558412552E-1,-5.522639751E-1
3.917327488E1,-5.442106724E-1,-1.434535980E-1,-3.879151344E-1
3.919313124E1,-7.961237431E-1,-1.457376480E-1,5.560946465E-2
3.921305098E1,-8.496007919E-1,-4.824829102E-2,2.667317390E-1
3.923292233E1,-1.040722370E0,2.477283478E-1,2.345235348E-1
3.925281795E1,-1.270343781E0,4.897041321E-1,2.014379501E-1
3.927272098E1,-1.801363587E0,6.867198944E-1,6.348922253E-1
3.929259420E1,-2.572155237E0,9.563846588E-1,1.152461290E0
3.931249467E1,-2.613924503E0,1.319712639E0,1.271189690E0
3.933242118E1,-2.063500404E0,1.835183144E0,1.306764603E0
3.935227998E1,-1.717863083E0,2.027104378E0,1.813368082E0
3.937216874E1,-1.866319060E0,2.452088356E0,2.833883047E0
3.939208743E1,-2.262212753E0,3.716419220E0,3.519424915E0
3.941193316E1,-1.840683460E0,4.740047455E0,3.431198120E0
3.943183405E1,-1.423232079E0,5.351670265E0,2.720311165E0
3.945172170E1,-1.953408480E0,7.048151016E0,9.903464317E-1
3.947161910E1,-3.472641945E0,9.774668694E0,-1.437190056E0
3.949149827E1,-5.453130722E0,1.331176376E1,-4.112331867E0
3.951141108E1,-1.043230724E1,1.730984116E1,-6.925043583E0
3.953127098E1,-1.403047562E1,1.872158813E1,-9.942113876E0
3.955118332E1,-1.175870037E1,1.405518723E1,-1.245865726E1
3.957107519E1,-9.064384460E0,5.156418800E0,-1.404729080E1
3.959094889E1,-8.228287697E0,-7.408924103E0,-1.200132561E1
3.961082436E1,-1.021340179E1,-2.345423698E1,-2.204747200E-1
3.963073874E1,-8.055041313E0,-3.983399963E1,5.305189610E0
3.965063446E1,1.774920464E0,-4.770043182E1,4.896826744E-1
3.967051394E1,1.027260590E1,-3.856845474E1,-1.015049934E1
3.969043941E1,3.976831913E0,-1.640152550E1,-1.464606571E1
3.971030134E1,-1.532655144E1,-4.115500927E0,-4.127655029E-1
3.973019009E1,-3.525530815E0,-8.831274986E0,-1.250329018E-1
3.975005868E1,5.142324924E0,-1.577834225E1,-8.906801224E0
3.976994092E1,3.771825314E0,-1.236275578E1,-7.906208038E0
3.978985051E1,3.840404749E0,-7.551990986E0,-1.339695930E0
3.980975488E1,2.809755325E0,-7.357913017E0,-3.352756500E-1
3.982962926E1,-6.631791592E-2,-6.117782593E0,1.991653442E-2
3.984950806E1,-2.113467932E0,-2.774258375E0,5.737638474E-1
3.986942603E1,-2.512872458E0,-1.532547474E-1,-1.220693588E-1
3.988928400E1,-3.121284962E0,3.724908829E-1,-1.454806328E0
3.990919275E1,-3.892813206E0,1.516034603E0,-2.754192352E0
3.992909748E1,-3.482969522E0,4.385674477E0,-3.234157562E0
3.994897103E1,-3.011169910E0,6.152330875E0,-2.510973930E0
3.996883827E1,-2.823579073E0,5.889075279E0,-1.412301064E0
3.998874962E1,-2.069249392E0,6.033283710E0,-6.110918522E-1
4.000863098E1,-1.921903133E0,7.067136288E0,4.048824310E-2
4.002853327E1,-2.273173332E0,6.777347088E0,9.619638920E-1
4.004845644E1,-2.101226091E0,5.955688000E0,1.716155291E0
4.006835384E1,-1.054278612E0,4.543534279E0,1.549101830E0
4.008819009E1,-1.003845215E0,3.844767570E0,1.191853285E0
4.010809144E1,-2.108341932E0,3.571801186E0,1.402945518E0
4.012796186E1,-2.875502110E0,2.854295731E0,9.729894400E-1
4.014783577E1,-2.843545437E0,2.170904160E0,3.434047699E-1
4.016775801E1,-2.305546761E0,1.782615662E0,2.191532850E-1
4.018763353E1,-2.308506489E0,1.226808548E0,2.891278267E-1
4.020751316E1,-2.335821152E0,6.482696533E-1,3.487862349E-1
4.022742363E1,-1.925412536E0,3.270912170E-1,5.904107094E-1
