"Time (s)","Linear Acceleration x (m/s^2)","Linear Acceleration y (m/s^2)","Linear Acceleration z (m/s^2)"
4.542225700E-2,1.089301109E-1,6.364955902E-1,8.025727272E-1
6.536548700E-2,2.894835472E-1,2.783241272E-1,7.867834568E-1
8.525996600E-2,3.998150826E-1,-8.040428162E-3,5.297591686E-1
1.050943410E-1,3.851556778E-1,-6.989464760E-1,7.594646215E-1
1.249976220E-1,7.387208939E-2,-1.494272232E0,1.290132165E0
1.448692370E-1,-5.058631897E-1,-1.371515274E0,1.317653060E0
1.648040280E-1,-1.157093525E0,-7.532563210E-1,8.337090015E-1
1.847017370E-1,-1.612090588E0,-4.825077057E-1,4.631425142E-1
2.045973100E-1,-1.719482422E0,-4.814701080E-1,3.554230928E-1
2.244478820E-1,-1.585106850E0,-5.988550186E-1,2.956107855E-1
2.443327780E-1,-1.575486660E0,-3.998298645E-1,2.613815069E-1
2.642269970E-1,-1.361660957E0,-2.240533829E-1,2.640197277E-1
2.841216320E-1,-9.741196632E-1,-3.896799088E-1,2.076436281E-1
3.040285070E-1,-6.399140358E-1,-1.006021500E-1,1.859054565E-1
3.239139760E-1,-5.911879539E-1,3.153896332E-2,1.133048534E-2
3.437868410E-1,-8.828492165E-1,-2.330846786E-1,-8.398628235E-2
3.636854870E-1,-1.010800362E0,-4.222278595E-1,-1.593990326E-1
3.835842890E-1,-8.517332077E-1,-3.664798737E-1,-4.141368866E-1
4.035149660E-1,-6.306004524E-1,-4.745049477E-1,-7.949729562E-1
4.233621010E-1,-4.538650513E-1,-9.972109795E-1,-1.034398437E0
4.432685600E-1,-4.927535057E-1,-1.730898857E0,-1.155930400E0
4.631448100E-1,-3.023204803E-1,-2.548422813E0,-1.283701658E0
4.830437680E-1,4.718699455E-1,-3.610809326E0,-1.342239141E0
5.029330910E-1,1.305799007E0,-4.935466766E0,-1.277296782E0
5.228511120E-1,1.361701012E0,-6.713410378E0,-5.852631330E-1
5.427356950E-1,5.805306435E-1,-9.224441528E0,7.079209089E-1
5.626430390E-1,-1.294546127E-1,-1.122978497E1,2.450139046E0
5.825348620E-1,5.736713409E-1,-1.185828209E1,3.697901249E0
6.023917890E-1,2.139340401E0,-1.191481018E1,3.507867098E0
6.222717370E-1,2.910370350E0,-1.154731655E1,3.016165733E0
6.421935600E-1,1.878360748E0,-9.967087746E0,3.546387672E0
6.620707470E-1,-7.239360809E-1,-7.568380356E0,3.599329948E0
6.819502780E-1,-4.400359154E0,-5.096145630E0,1.351930141E0
7.018492370E-1,-9.153007507E0,-1.714253545E0,-2.042000294E0
7.217277780E-1,-1.435204792E1,3.802464724E0,-7.133186340E0
7.416431430E-1,-1.964863205E1,1.263033199E1,-1.288069820E1
7.615999140E-1,-2.557732391E1,2.290990639E1,-1.835875320E1
7.814055390E-1,-3.150036240E1,3.258782578E1,-2.388110542E1
8.012879350E-1,-3.447035217E1,4.073870087E1,-3.007806015E1
8.212040800E-1,-3.061218643E1,3.968222427E1,-3.839287186E1
8.410763200E-1,-2.311745262E1,2.924452209E1,-4.646553040E1
8.609888720E-1,-1.504297066E1,1.527391052E1,-5.300160217E1
8.808790800E-1,-8.252386093E0,2.703546762E0,-5.828242111E1
9.007585070E-1,-2.659252167E0,-8.151291847E0,-6.305131531E1
9.206876740E-1,1.949490547E0,-1.826930809E1,-6.704469299E1
9.405946010E-1,1.401641846E0,-2.947972488E1,-7.034561920E1
9.604237160E-1,1.264683723E0,-4.614608765E1,-7.272409058E1
9.803260070E-1,1.329097176E1,-5.148112869E1,-5.936560059E1
1.000216997E0,1.992784309E1,-4.879138947E1,-3.729183960E1
1.020105487E0,1.779238701E1,-5.176233673E1,-2.597859573E1
1.040010851E0,1.382649422E1,-4.762121964E1,-1.464927959E1
1.059895487E0,9.544017792E0,-3.876997757E1,-5.126328945E0
1.079787257E0,5.783159733E0,-3.318024826E1,3.108968735E-1
1.099651997E0,7.394465923E0,-3.230132294E1,1.222692013E1
1.119557518E0,-6.601177216E0,-1.330552673E1,1.474801159E1
1.139430591E0,-8.783983231E0,-1.391258049E1,1.008105278E0
1.159325018E0,-3.749539375E0,-7.337942600E0,9.115386009E-2
1.179229445E0,-3.797254562E0,1.649594784E0,1.602617741E0
1.199106007E0,-4.903281212E0,4.546460152E0,-1.412412405E0
1.219033351E0,-6.368485451E0,5.704870224E0,-2.378011227E0
1.238898351E0,-8.292859077E0,7.121229649E0,-1.862965226E0
1.258813872E0,-6.857371330E0,6.942393780E0,-1.534705877E0
1.278702414E0,-4.903250694E0,5.611519814E0,-1.173049450E0
1.298612987E0,-3.417687893E0,3.504404545E0,-2.787232399E-1
1.318496372E0,-1.886929035E0,1.136138916E0,-7.369900942E-1
1.338367414E0,2.207322121E-1,1.655478477E-1,-9.875252247E-1
1.358265330E0,1.996162415E0,7.661342621E-2,-3.152651191E-1
1.378128768E0,2.799433708E0,-2.500810623E-1,1.962690353E-1
1.398033768E0,2.821658373E0,-1.197014809E0,-5.451786518E-2
1.417927466E0,3.179525375E0,-1.182941914E0,-6.696388125E-1
1.437814028E0,3.686692715E0,-8.657584190E-1,-8.597036004E-1
1.457701997E0,4.069288254E0,-6.537685394E-1,-3.989119530E-1
1.477610070E0,3.965802193E0,-3.014640808E-1,-4.374728203E-1
1.497525122E0,3.484255791E0,-1.500806808E-1,-9.470819235E-1
1.517377935E0,2.585136175E0,7.917976379E-2,-8.688455224E-1
1.537281789E0,1.873857260E0,5.356979370E-1,-4.166716337E-1
1.557212518E0,1.553164482E0,9.221172333E-1,-3.599011898E-1
1.577043820E0,1.510922909E0,9.163465500E-1,-6.925015450E-1
1.596949341E0,1.664821029E0,7.791500092E-1,-8.544639945E-1
1.616843820E0,1.349625587E0,7.984113693E-1,-7.002293468E-1
1.636725955E0,9.546158314E-1,8.752326965E-1,-2.623118162E-1
1.656623716E0,9.317815304E-1,7.068176270E-1,4.074490070E-2
1.676514185E0,1.258377314E0,5.422515869E-1,1.260617971E-1
1.696404757E0,1.562505484E0,5.705537796E-1,3.757941723E-2
1.716309237E0,1.608692169E0,8.063001633E-1,2.481280565E-1
1.736215955E0,1.417244554E0,8.204078674E-1,5.402399302E-1
1.756071528E0,1.177069426E0,5.941905975E-1,6.336888075E-1
1.775951632E0,9.701492786E-1,5.051555634E-1,3.608499765E-1
1.795875851E0,8.019382954E-1,5.547189713E-1,-1.105079055E-1
1.815761997E0,6.782422066E-1,5.743370056E-1,-1.933223605E-1
1.835615018E0,7.386789322E-1,2.797403336E-1,4.084479809E-2
1.855548247E0,8.806409836E-1,-1.143474579E-1,2.329838276E-1
1.875437726E0,7.662889957E-1,-6.732559204E-2,1.859809756E-1
1.895320382E0,5.171360970E-1,3.521461487E-1,6.938421726E-2
1.915226997E0,2.778000832E-1,4.917058945E-1,8.450615406E-2
1.935084914E0,1.172535419E-1,2.635221481E-1,1.067043543E-1
1.955003039E0,1.108553410E-1,4.532966614E-1,8.626031876E-2
1.974871632E0,-2.185630798E-2,8.370294571E-1,4.015058279E-2
1.994781060E0,-5.424852371E-1,5.720024109E-1,-8.719170094E-2
2.014665487E0,-1.006005764E0,1.649398804E-1,-9.212344885E-2
2.034600382E0,-1.385719776E0,7.460594177E-2,-1.234559119E-1
2.054478924E0,-1.526420832E0,3.802967072E-2,-1.765446663E-1
2.074312882E0,-1.305526495E0,-4.783067703E-1,-2.187024057E-1
2.094213299E0,-8.096780777E-1,-1.099461555E0,-2.289408743E-1
2.114119653E0,-2.208504677E-1,-1.597344875E0,-2.808426321E-1
2.133986164E0,2.638809681E-1,-2.265742302E0,-5.016914010E-1
2.153875174E0,1.021733522E0,-2.837749481E0,-5.584606528E-1
2.173774185E0,1.962423682E0,-3.454404354E0,-3.028844595E-1
2.193681789E0,3.312988520E0,-4.331121922E0,9.633222222E-2
2.213572935E0,4.390968323E0,-5.225064278E0,6.890057325E-1
2.233445903E0,4.994730949E0,-6.225744247E0,1.155112863E0
2.253336997E0,4.869128704E0,-7.097856998E0,1.458419323E0
2.273241737E0,3.975300789E0,-7.144417286E0,2.212357521E0
2.293136372E0,3.127136230E0,-6.423789501E0,2.981648922E0
2.313031268E0,2.798369408E0,-5.168579578E0,3.089515209E0
2.332916476E0,2.253715992E0,-3.451742411E0,2.747602224E0
2.352789185E0,6.067075729E-1,-1.141807079E0,2.253195524E0
2.372721685E0,-2.069314003E0,1.666986465E0,1.103536487E0
2.392656528E0,-5.951606750E0,6.363593102E0,-2.149758339E0
2.412521997E0,-1.184711266E1,1.523154354E1,-6.713569164E0
2.432355174E0,-1.924120331E1,2.557311630E1,-1.082391357E1
2.452285122E0,-2.678785324E1,3.586260223E1,-1.516493988E1
2.472158195E0,-2.955676842E1,3.893606949E1,-2.228176498E1
2.492066580E0,-2.536550522E1,3.748006439E1,-3.086653709E1
2.511924393E0,-1.514548683E1,2.964503860E1,-4.261555481E1
2.531823872E0,-4.006685257E0,1.777572441E1,-5.573890686E1
2.551739289E0,5.491299152E0,5.398972034E0,-6.392617416E1
2.571605174E0,9.524017334E0,-6.633954048E0,-6.688193512E1
2.591567049E0,7.092667580E0,-2.239708710E1,-6.778324127E1
2.611397257E0,2.706564426E0,-4.439108658E1,-6.539292145E1
2.631282674E0,8.545410156E0,-6.280103683E1,-5.457418442E1
2.651171216E0,1.828108788E1,-5.405484772E1,-3.025068283E1
2.671070174E0,1.909870529E1,-5.134191513E1,-2.049669456E1
2.690958872E0,1.949591827E1,-5.194454193E1,-1.609955215E1
2.710832518E0,1.442665482E1,-4.137250519E1,-4.401009560E0
2.730741737E0,8.067792892E0,-3.191726112E1,2.283218145E0
2.750645018E0,2.670686245E0,-2.782562065E1,3.781962395E0
2.770581424E0,1.172395706E0,-2.555184174E1,6.685159683E0
2.790421997E0,-2.131021500E0,-1.494604778E1,1.140364361E1
2.810302935E0,-4.429024696E0,-9.331768036E0,7.589224815E0
2.830230903E0,-1.728690147E0,-4.815368652E0,2.466288567E0
2.850074757E0,-3.017247200E0,2.571777582E0,1.895518541E0
2.869989289E0,-6.096073151E0,6.296205997E0,1.023100376E0
2.889879914E0,-6.289777279E0,8.034749985E0,-3.671932220E-1
2.909767362E0,-4.859674931E0,8.068864822E0,-1.134471536E0
2.929647466E0,-4.131641865E0,6.675013065E0,-5.719387531E-1
2.949556268E0,-3.405415535E0,5.280380249E0,4.501724243E-1
2.969438351E0,-2.068225861E0,3.282013416E0,4.970345497E-1
2.989335018E0,-5.886783600E-1,1.320892811E0,-1.386748552E-1
3.009234393E0,1.220632076E0,3.469762802E-1,-2.964632511E-1
3.029123039E0,2.325088978E0,2.311515808E-1,8.628040552E-1
3.048996320E0,2.632851124E0,-1.135082245E-1,1.593486428E0
3.068867570E0,2.784997463E0,-4.162216187E-1,1.010990262E0
3.088799653E0,2.972397327E0,-1.987161636E-1,3.361004591E-1
3.108679705E0,2.684449196E0,-2.059726715E-1,4.058810472E-1
3.128568612E0,2.209522724E0,-8.355903625E-2,8.285876513E-1
3.148475487E0,1.923224092E0,1.640539169E-1,7.676928043E-1
3.168359080E0,1.775623679E0,1.002435684E-1,-1.026791334E-1
3.188257310E0,1.604818463E0,2.006406784E-1,-7.349903584E-1
3.208131685E0,1.610347033E0,4.217205048E-1,-5.425742865E-1
3.228019237E0,1.810678005E0,5.892562866E-2,3.071761131E-2
3.247899757E0,2.087552547E0,4.962158203E-2,3.361897469E-1
3.267817101E0,2.221720457E0,4.218616486E-1,1.421066523E-1
3.287689185E0,2.154887676E0,4.999771118E-1,-1.152018309E-1
3.307582987E0,1.924492836E0,4.323759079E-1,-6.327259541E-2
3.327490539E0,1.857556105E0,5.877180099E-1,4.119455814E-2
3.347377622E0,1.851611018E0,7.570304871E-1,-5.939495564E-2
3.367278664E0,1.808515072E0,9.821186066E-1,-1.466643810E-1
3.387131893E0,1.567412972E0,8.994874954E-1,-1.259351969E-1
3.407050122E0,1.367797613E0,7.140560150E-1,1.365921497E-1
3.426918143E0,1.283601761E0,6.512918472E-1,3.692237139E-1
3.446832205E0,1.405040979E0,7.822942734E-1,5.427438021E-1
3.466722518E0,1.347925425E0,7.519216537E-1,4.321298599E-1
3.486613924E0,1.147076845E0,6.890201569E-1,3.871111870E-1
3.506506007E0,8.016312122E-1,5.698318481E-1,3.578131199E-1
3.526379237E0,5.211522579E-1,5.154809952E-1,2.646270990E-1
3.546271789E0,3.317878246E-1,5.685148239E-1,2.201547623E-1
3.566172310E0,7.186651230E-2,4.810047150E-1,1.771389246E-1
3.586056737E0,5.103397369E-2,3.684215546E-1,2.993618250E-1
3.605973507E0,6.151795387E-2,3.269786835E-1,3.092170954E-1
3.625854810E0,-8.222198486E-2,3.829021454E-1,1.901456118E-1
3.645727362E0,-1.908020973E-1,2.584180832E-1,1.677353382E-1
3.665612153E0,-3.450913429E-1,3.775024414E-2,1.109367609E-1
3.685546476E0,-4.230303764E-1,-1.617336273E-2,1.235430241E-1
3.705393924E0,-4.747674465E-1,1.619052887E-2,2.123051882E-1
3.725306060E0,-4.851872921E-1,2.481555939E-2,2.214837074E-1
3.745185018E0,-5.435035229E-1,-5.951786041E-2,2.727289200E-1
3.765083455E0,-5.952203274E-1,-1.877355576E-1,3.204170465E-1
3.784962518E0,-6.201491356E-1,-1.110353470E-1,3.409882784E-1
3.804870382E0,-6.019921303E-1,5.929851532E-2,2.957124710E-1
3.824768039E0,-6.758294106E-1,-9.195327759E-3,1.989762783E-1
3.844669549E0,-8.506920338E-1,-1.089153290E-1,2.357265949E-1
3.864585018E0,-1.020381451E0,-8.419036865E-2,2.810307741E-1
3.884410591E0,-1.232319593E0,1.132507324E-1,3.230770826E-1
3.904323664E0,-1.453349829E0,3.333854675E-2,2.892839909E-1
3.924204185E0,-1.376710415E0,-2.398319244E-1,2.598563433E-1
3.944116476E0,-9.889264107E-1,-2.932987213E-1,3.922045231E-2
3.963982778E0,-8.664617538E-1,-3.168296814E-1,-3.414467573E-1
3.983882153E0,-1.251447439E0,-6.005849838E-1,-6.790389419E-1
4.003793872E0,-1.261637211E0,-7.048444748E-1,-5.169141293E-1
4.023648768E0,-6.038780212E-1,-9.230794907E-1,-2.888284922E-1
4.043569914E0,-1.676700115E-1,-1.248700142E0,-5.957788825E-1
4.063451737E0,-4.996371269E-2,-1.513986588E0,-1.144500852E0
4.083333664E0,1.255736351E-1,-1.630206585E0,-1.425548077E0
4.103228091E0,9.498302937E-1,-1.499396324E0,-9.648176432E-1
4.123113560E0,1.504629374E0,-1.206656933E0,-5.955919027E-1
4.143016685E0,1.491776466E0,-1.032603741E0,-7.070918083E-1
4.162895747E0,1.749913931E0,-1.143446922E0,-3.039572239E-1
4.182786789E0,2.494717360E0,-1.325469494E0,1.324915886E-1
4.202686164E0,2.681895971E0,-2.311782837E0,1.294582367E0
4.222597674E0,3.208826542E0,-3.373564243E0,2.640952349E0
4.242457987E0,4.153309345E0,-3.837347507E0,3.808176517E0
4.262335382E0,5.045785427E0,-3.971018553E0,4.521531105E0
4.282238924E0,5.856653690E0,-2.939318180E0,5.058455467E0
4.302117570E0,6.487993717E0,-6.425585747E-1,5.743223667E0
4.322042830E0,6.259442329E0,2.548060417E0,5.857924938E0
4.341912570E0,4.840246201E0,6.900507927E0,5.657837868E0
4.361810018E0,1.380800724E0,1.386862373E1,5.297545910E0
4.381696007E0,-4.255219460E0,2.307010651E1,2.183895588E0
4.401615747E0,-9.040565491E0,3.283269882E1,-3.361940861E0
4.421570955E0,-1.136217308E1,4.110663986E1,-9.058679581E0
4.441384653E0,-9.781137466E0,4.148377228E1,-1.725903702E1
4.461271632E0,-3.693351746E0,3.149490166E1,-3.059505844E1
4.481196580E0,5.711556435E0,1.829877472E1,-4.372215652E1
4.501056632E0,1.145689201E1,4.398546219E0,-5.303701401E1
4.520965851E0,6.146464348E0,-1.534948063E1,-6.467049408E1
4.540840747E0,-7.093996048E0,-3.696498108E1,-6.301039124E1
4.560745955E0,-1.108690262E1,-5.711326218E1,-5.165710068E1
4.580639393E0,-1.791427612E0,-5.869341278E1,-3.442487335E1
4.600552830E0,7.477425098E0,-4.669708633E1,-1.636869240E1
4.620387987E0,1.008988476E1,-4.954101562E1,-1.165622616E1
4.640269914E0,1.368485832E1,-4.629272842E1,-4.577531815E0
4.660211528E0,1.302963543E1,-3.724887085E1,5.390397072E0
4.680086997E0,9.873136520E0,-2.950466156E1,9.014913559E0
4.699969185E0,7.271595478E0,-2.434741783E1,8.080195427E0
4.719843351E0,4.622312546E0,-1.921192360E1,7.152035236E0
4.739758664E0,2.775439262E0,-1.394217491E1,7.168015480E0
4.759657726E0,1.374779224E0,-7.934216499E0,6.185932159E0
4.779548455E0,-5.205345154E-2,-1.917242408E0,3.488349915E0
4.799498872E0,-2.632658005E0,2.719282150E0,7.372770309E-1
4.819297830E0,-5.303866386E0,6.002421856E0,2.967972755E-1
4.839224393E0,-5.837725639E0,7.525711536E0,3.130111694E-1
4.859106632E0,-4.619907856E0,7.224444389E0,-5.668011904E-1
4.878996060E0,-3.425595284E0,6.436138630E0,-4.272627831E-1
4.898876320E0,-2.455586433E0,5.404514790E0,4.283593893E-1
4.918792830E0,-1.514399529E0,3.639427662E0,6.955978870E-1
4.938704757E0,-3.983492851E-1,1.788774967E0,5.214576721E-1
4.958568820E0,2.936601639E-1,6.633915901E-1,7.941651344E-1
4.978423664E0,7.950463295E-1,1.816749573E-1,1.394528866E0
4.998325382E0,1.728990793E0,-4.219555855E-1,1.414091587E0
5.018234810E0,2.259093285E0,-1.193453789E0,7.131717205E-1
5.038108768E0,2.318588018E0,-1.459701538E0,4.966304302E-1
5.058019914E0,2.184247494E0,-1.376170635E0,5.970373154E-1
5.077911060E0,1.900534272E0,-1.213724136E0,4.783544540E-1
5.097797882E0,1.759931326E0,-8.562159538E-1,3.305506706E-2
5.117695851E0,1.726214886E0,-2.672100067E-1,-4.684181213E-1
5.137596580E0,1.789268374E0,2.267465591E-1,-7.836267948E-1
5.157464080E0,1.917876005E0,4.113550186E-1,-7.798212767E-1
5.177344185E0,2.278404713E0,5.028362274E-1,-7.360579967E-1
5.197246320E0,2.533921242E0,5.553979874E-1,-6.955838203E-1
5.217139132E0,2.527549505E0,6.381311417E-1,-4.342467785E-1
5.237051268E0,2.325019121E0,5.112667084E-1,1.149082184E-2
5.256924497E0,1.838357329E0,2.016706467E-1,3.379940987E-1
5.276824601E0,1.510584831E0,1.054239273E-1,4.305243492E-1
5.296692466E0,1.386410356E0,2.895336151E-1,2.957818508E-1
5.316604341E0,1.413658619E0,4.444141388E-1,1.483025551E-1
5.336496580E0,1.362161517E0,3.721580505E-1,1.868062019E-1
5.356383716E0,1.274882674E0,5.363492966E-1,2.353160381E-1
5.376273820E0,1.357147217E0,6.352872849E-1,2.411108017E-1
5.396210487E0,1.266624331E0,4.812021255E-1,3.471329212E-1
5.416053664E0,1.084410667E0,3.499279022E-1,5.526306629E-1
5.435960643E0,9.113607407E-1,4.189805984E-1,4.688713551E-1
5.455812310E0,9.007513523E-1,6.595458984E-1,3.243889809E-1
5.475740122E0,8.321237564E-1,6.612520218E-1,3.105826378E-1
5.495599185E0,5.487139225E-1,4.563188553E-1,3.915779591E-1
5.515515122E0,3.705673218E-1,3.389749527E-1,4.693086147E-1
5.535386112E0,3.634572029E-1,3.314867020E-1,3.622412682E-1
5.555283351E0,3.693895340E-1,5.085573196E-1,2.279164791E-1
5.575186060E0,3.400688171E-1,5.575532913E-1,2.873246670E-1
5.595065643E0,2.457246780E-1,3.241863251E-1,3.014779091E-1
5.614943299E0,1.208779812E-1,1.512422562E-1,3.001208305E-1
5.634844601E0,-9.326219559E-3,1.886129379E-1,2.193185091E-1
5.654771320E0,-3.343820572E-3,3.727312088E-1,2.347849607E-1
5.674649393E0,2.656888962E-2,3.085718155E-1,2.359651327E-1
5.694562570E0,1.415345669E-1,9.036636353E-2,2.680190802E-1
5.714429341E0,5.207967758E-2,-1.114025116E-1,1.312419176E-1
5.734305695E0,-1.597104073E-1,9.123802185E-3,9.016215801E-2
5.754193924E0,-2.721452713E-1,2.246665955E-1,1.057765484E-1
5.774095487E0,-1.785626411E-1,1.480388641E-1,8.246612549E-2
5.793989601E0,3.869390488E-2,-6.949806213E-2,2.392659187E-1
5.813864966E0,4.766201973E-2,-2.861070633E-1,2.403312922E-1
5.833771268E0,-1.287701130E-1,-1.628751755E-1,1.797528267E-1
5.853661164E0,-3.333888054E-1,1.045150757E-1,1.067138910E-1
5.873573820E0,-3.351457119E-1,2.381782532E-1,8.837497234E-2
5.893445903E0,-2.570033073E-1,1.084489822E-1,1.088601351E-1
5.913331685E0,-1.822538376E-1,-3.986072540E-2,7.447195053E-2
5.933228299E0,-2.434985638E-1,-8.334732056E-2,-1.555848122E-2
5.953123455E0,-2.547006607E-1,-3.274345398E-2,7.194280624E-4
5.972990330E0,-1.872227192E-1,4.185581207E-2,8.017063141E-3
5.992909185E0,-1.954128742E-1,2.829742432E-2,-6.954383850E-2
6.012805539E0,-2.736890316E-1,1.010131836E-2,-6.494474411E-2
6.032684237E0,-2.680220604E-1,6.464099884E-2,-4.798889160E-3
6.052584289E0,-1.602299213E-1,1.412048340E-1,4.059410095E-2
6.072443820E0,-2.648210526E-2,1.573295593E-1,1.069278717E-1
6.092348299E0,3.013348579E-2,-8.964538574E-4,1.600191593E-1
6.112224445E0,3.771543503E-3,-9.778594971E-2,1.627838612E-1
6.132107987E0,-1.005191803E-1,-8.449268341E-2,1.471810341E-1
6.152019914E0,-1.873795986E-1,-9.731292725E-2,3.007674217E-2
6.171911372E0,-3.257989883E-3,-3.908920288E-2,-6.836652756E-3
6.191812830E0,4.435195923E-1,-7.010650635E-2,-1.403776407E-1
6.211664914E0,9.685533047E-1,-2.841625214E-1,-3.216921091E-1
6.231590382E0,1.436837912E0,-6.481180191E-1,-4.345592260E-1
6.251470903E0,1.906234622E0,-1.213526726E0,-4.971016645E-1
6.271346841E0,2.377350807E0,-1.796621799E0,-5.282179117E-1
6.291249549E0,2.674916983E0,-2.358222961E0,-3.783802986E-1
6.311138924E0,2.388013840E0,-2.837892532E0,3.277522326E-1
6.331053039E0,1.227675915E0,-3.930163383E0,1.958249688E0
6.350931685E0,1.032558203E0,-5.420658112E0,2.988958359E0
6.370843091E0,1.382728100E0,-6.674522400E0,3.324060440E0
6.390741737E0,1.414110899E0,-7.423786163E0,4.431575775E0
6.410681060E0,1.199568987E0,-7.437098026E0,5.958283901E0
6.430497518E0,6.966452599E-1,-6.702492714E0,6.806749821E0
6.450385382E0,-7.723760605E-2,-4.907026291E0,7.069451332E0
6.470269185E0,-1.429462433E0,-5.339021683E-1,7.361227036E0
6.490179810E0,-4.065179825E0,7.578346252E0,6.868315220E0
6.510062153E0,-9.658557892E0,1.947639465E1,4.554838181E0
6.529974653E0,-1.811863327E1,3.386200333E1,1.454496145E0
6.549835487E0,-2.283558464E1,4.598476410E1,-5.444979668E-1
6.569728976E0,-1.883967972E1,4.872625732E1,-6.555410385E0
6.589611945E0,-7.997731209E0,3.701332855E1,-2.399449158E1
6.609546685E0,7.019320488E0,2.271877289E1,-4.521348953E1
6.629407101E0,1.412804413E1,8.897065163E0,-5.676833344E1
6.649292570E0,1.063360786E1,-5.792806625E0,-5.837098312E1
6.669211372E0,3.489107609E0,-2.290754700E1,-6.146762848E1
6.689081476E0,1.787340164E0,-3.715471649E1,-5.502672577E1
6.708964028E0,9.442996025E0,-4.280606079E1,-4.129317093E1
6.728841476E0,2.144301605E1,-4.078871918E1,-2.777500153E1
6.748758039E0,2.310791588E1,-3.771503830E1,-1.835495758E1
6.768692882E0,1.834282494E1,-3.462597656E1,-1.122238350E1
6.788595382E0,1.321562767E1,-3.175319290E1,-5.820095539E0
6.808438560E0,9.136420250E0,-2.749527550E1,-1.803114176E0
6.828328612E0,4.169308186E0,-2.439118958E1,4.201126099E-1
6.848232205E0,-2.522163391E-1,-2.104313660E1,2.124562025E0
6.868109185E0,-1.612159729E0,-1.645555687E1,3.666711569E0
6.888000018E0,-1.342931747E0,-1.212423706E1,4.872238159E0
6.907880070E0,-1.052025795E0,-8.424429893E0,5.830640793E0
6.927765382E0,-1.007828712E0,-4.764969826E0,5.831811905E0
6.947670070E0,-2.144329071E0,-9.365075827E-1,5.074090958E0
6.967556268E0,-4.688539505E0,1.660557032E0,4.677982330E0
6.987465487E0,-6.983115196E0,2.381410122E0,4.420758724E0
7.007360122E0,-7.022145271E0,2.372375011E0,3.638075352E0
7.027239862E0,-5.335782528E0,1.715374947E0,1.592340231E0
7.047144393E0,-3.992334843E0,1.203935623E0,-4.211579561E-1
7.067040226E0,-3.610247135E0,9.543652534E-1,-4.410665035E-1
7.086886893E0,-3.141322136E0,2.952818871E-1,2.779368162E-1
7.106802570E0,-1.981172562E0,-7.586488724E-1,-1.604788303E-1
7.126675799E0,-3.887553215E-1,-1.367490292E0,-1.624817967E0
7.146591893E0,9.059939384E-1,-6.637177467E-1,-3.029081345E0
7.166484757E0,1.503947496E0,1.495914459E-1,-2.750300169E0
7.186378039E0,2.149628639E0,3.886823654E-1,-1.405175209E0
7.206277153E0,2.468100071E0,5.773067474E-2,-1.292843580E0
7.226142570E0,2.691676140E0,7.497024536E-2,-2.576433659E0
7.246027049E0,2.821975231E0,4.534273148E-1,-2.932898283E0
7.265938768E0,3.023823261E0,8.674468994E-1,-2.207203627E0
7.285828820E0,3.052501202E0,1.089567184E0,-1.297827125E0
7.305729080E0,2.649959803E0,9.575376511E-1,-1.279067755E0
7.325602466E0,2.638611078E0,8.069219589E-1,-1.609694719E0
7.345530903E0,2.711340189E0,4.950876236E-1,-1.490708709E0
7.365373507E0,2.564364433E0,1.603546143E-1,-6.264146566E-1
7.385294810E0,2.411402702E0,3.151893616E-2,5.551804304E-1
7.405168664E0,2.352353811E0,1.858139038E-2,8.853474855E-1
7.425071580E0,2.284525394E0,3.452558517E-1,5.185922384E-1
7.444955591E0,2.184312344E0,5.274963379E-1,1.250816584E-1
7.464832466E0,1.841531992E0,5.444726944E-1,1.158924103E-1
7.484736841E0,1.486538172E0,7.599020004E-1,2.556579113E-1
7.504657622E0,1.341384411E0,9.303770065E-1,3.301143646E-3
7.524552830E0,1.186052680E0,1.087398529E0,-2.131274939E-1
7.544393560E0,9.574933052E-1,1.067853928E0,-2.207517624E-2
7.564282987E0,6.798059940E-1,9.368724823E-1,3.333873749E-1
7.584209653E0,5.766711235E-1,8.819828033E-1,4.086980820E-1
7.604063612E0,6.938185692E-1,8.918876648E-1,2.378979921E-1
7.623985747E0,7.160466909E-1,7.012319565E-1,1.002814770E-1
7.643877153E0,6.129047871E-1,4.250640869E-1,2.918059826E-1
7.663766685E0,4.240393639E-1,2.630538940E-1,4.587044716E-1
7.683636685E0,3.781213760E-1,2.523822784E-1,4.567182064E-1
7.703557518E0,3.479349613E-1,2.397251129E-1,3.039914370E-1
7.723448560E0,1.031692028E-1,1.985635757E-1,1.565339565E-1
7.743321685E0,-5.267143250E-3,9.496879578E-2,2.160279751E-1
7.763202778E0,-1.446700096E-2,4.500675201E-2,3.222028017E-1
7.783092987E0,-1.635801792E-1,1.622104645E-1,3.612948656E-1
7.803005330E0,-2.461292744E-1,3.237495422E-1,4.072301388E-1
7.822868507E0,-9.119534492E-2,2.646913528E-1,3.386632204E-1
7.842777101E0,1.723258495E-1,1.570110321E-1,2.757545710E-1
7.862673039E0,2.830610275E-1,8.519458771E-2,2.351425886E-1
7.882585955E0,2.145388126E-1,1.142988205E-1,2.305136919E-1
7.902440278E0,4.643869400E-2,3.166866302E-2,2.287199497E-1
7.922356737E0,-2.789521217E-2,-7.950019836E-2,2.727167606E-1
7.942249810E0,-7.362174988E-2,-1.235866547E-1,2.721394300E-1
7.962139914E0,-1.279489994E-1,-5.771923065E-2,2.058868408E-1
7.982027101E0,-3.447566032E-1,7.714366913E-2,1.664144993E-1
8.001919185E0,-4.907376766E-1,3.573131561E-2,2.260918617E-1
8.021789966E0,-6.037709713E-1,-1.254463196E-2,3.695931435E-1
8.041671476E0,-6.495792866E-1,1.684322357E-1,4.174087048E-1
8.061590278E0,-5.197415352E-1,4.069776535E-1,3.490056992E-1
8.081518716E0,-3.991663456E-1,3.074684143E-1,2.086081505E-1
8.101358820E0,-3.186397552E-1,1.074047089E-1,1.158893108E-1
8.121248716E0,-1.639871597E-1,-2.202129364E-2,1.260905266E-1
8.141158664E0,9.294033051E-2,-8.328819275E-2,9.084200859E-2
8.161033664E0,1.791741848E-1,-1.571464539E-1,-5.458879471E-2
8.180907153E0,4.027938843E-1,-3.774356842E-1,-1.821395159E-1
8.200819705E0,9.703266621E-1,-7.451953888E-1,-1.895734072E-1
8.220714966E0,1.911064744E0,-1.150930882E0,-5.659699440E-2
8.240599549E0,2.578656673E0,-1.614692211E0,4.253230095E-1
8.260557830E0,2.473361492E0,-2.314303398E0,1.203884840E0
8.280363716E0,1.761920214E0,-3.300808907E0,1.583856821E0
8.300267518E0,1.733385086E0,-4.117996693E0,1.317826509E0
8.320148403E0,2.161715269E0,-4.434231758E0,1.289932728E0
8.340058247E0,3.154344797E0,-4.612343788E0,1.782160759E0
8.359950955E0,4.755699158E0,-4.926910877E0,2.356224298E0
8.379826268E0,6.145555496E0,-5.122885704E0,3.328767300E0
8.399740799E0,6.526755810E0,-4.835843086E0,4.200322628E0
8.419626685E0,5.436349392E0,-3.237456322E0,4.721921444E0
8.439514810E0,3.059660912E0,7.046108246E-1,5.340317726E0
8.459388091E0,-9.179592133E-2,6.839114666E0,5.728130341E0
8.479302570E0,-4.631066322E0,1.494206047E1,5.370979786E0
8.499194810E0,-1.164406681E1,2.537916565E1,3.628476620E0
8.519103195E0,-2.134172058E1,3.713216782E1,-1.163104296E0
8.538990747E0,-2.531962967E1,4.476108551E1,-1.274561787E1
8.558871476E0,-1.562028599E1,4.117579651E1,-2.838600731E1
8.578773247E0,-2.436316490E0,2.811669350E1,-4.229685593E1
8.598652570E0,3.654750347E0,1.122557640E1,-5.519187546E1
8.618585903E0,2.698595524E0,-4.826578140E0,-6.356290054E1
8.638419393E0,-5.720481873E-1,-1.862515068E1,-6.059619141E1
8.658310070E0,2.796649933E-2,-3.488191986E1,-5.533822632E1
8.678199445E0,7.183250427E0,-5.090550232E1,-4.717479324E1
8.698093507E0,1.548131752E1,-4.883613586E1,-3.023049355E1
8.717986060E0,2.061273193E1,-4.497555923E1,-1.945190430E1
8.737870070E0,2.075195312E1,-4.082849503E1,-1.237458801E1
8.757793091E0,1.603458786E1,-3.546260834E1,-4.267267704E0
8.777648195E0,9.894591331E0,-2.929078102E1,1.454926014E0
8.797561476E0,4.593871117E0,-2.477445221E1,3.435298920E0
8.817447830E0,7.378864288E-2,-2.039491844E1,4.896165848E0
8.837342310E0,-3.399477005E0,-1.492972565E1,5.969758034E0
8.857230695E0,-5.464852333E0,-1.018130493E1,5.891387939E0
8.877133247E0,-6.136305809E0,-5.791319847E0,5.077758789E0
8.897015226E0,-5.962510109E0,-8.895931244E-1,3.701389790E0
8.916925435E0,-6.011997223E0,2.614823341E0,1.681399107E0
8.936805799E0,-6.385998726E0,3.966357708E0,4.083726406E-1
8.956681372E0,-6.005187988E0,4.284317970E0,-1.406574249E-2
8.976593403E0,-4.010629654E0,4.087248325E0,-2.829103470E-1
8.996486632E0,-2.139404297E0,3.532917023E0,-1.070547581E0
9.016344549E0,-8.791499138E-1,2.625545979E0,-1.374706268E0
9.036250487E0,1.315193176E-1,1.733182907E0,-1.265870929E0
9.056138560E0,8.149890900E-1,1.089175224E0,-8.800962567E-1
9.076032935E0,1.013560772E0,7.060585022E-1,-2.149101496E-1
9.095921737E0,1.240880966E0,2.063875198E-1,-2.007184029E-1
9.115828560E0,2.087851763E0,-7.626819611E-2,-6.961961985E-1
9.135713455E0,3.124654293E0,2.095203400E-1,-1.076181889E0
9.155599497E0,3.615210295E0,6.517028809E-1,-9.917916059E-1
9.175474028E0,3.641946793E0,9.304523468E-1,-6.113338470E-1
9.195366007E0,3.286511421E0,7.954368591E-1,-7.692589760E-1
9.215263768E0,2.960863113E0,7.765970230E-1,-1.186636925E0
9.235160747E0,2.615591526E0,6.156702042E-1,-1.254587650E0
9.255071632E0,2.327885866E0,6.352033615E-1,-9.311633110E-1
9.274962830E0,2.624167442E0,8.449277878E-1,-5.735419989E-1
9.294842830E0,3.011505365E0,9.119729996E-1,-5.552484989E-1
9.314755799E0,2.987425089E0,7.865705490E-1,-5.095114708E-1
9.334636685E0,2.770106077E0,6.285772324E-1,-2.983093262E-1
9.354522101E0,2.671827078E0,6.503229141E-1,-1.142432690E-1
9.374385435E0,2.732663393E0,8.868894577E-1,-1.186895370E-2
9.394300122E0,2.506619930E0,7.138462067E-1,-8.011567593E-2
9.414196997E0,2.064655781E0,4.571466446E-1,-5.188369751E-2
9.434085226E0,1.536891460E0,6.168813705E-1,2.477431297E-2
9.453972674E0,1.382170439E0,7.463855743E-1,2.895593643E-4
9.473867205E0,1.343736410E0,6.198196411E-1,2.020622492E-1
9.493729393E0,9.876353741E-1,3.261032104E-1,5.519546270E-1
9.513621945E0,5.262999535E-1,4.455938339E-1,5.303244591E-1
9.533551007E0,4.499173164E-1,8.417272568E-1,2.817866802E-1
9.553420382E0,4.221754074E-1,8.154258728E-1,1.459376812E-1
9.573339862E0,2.209107876E-1,6.094293594E-1,3.775860071E-1
9.593218247E0,-1.125950813E-1,5.008821487E-1,6.135017872E-1
9.613098351E0,-7.320857048E-2,4.548368454E-1,4.947967529E-1
9.632975226E0,-3.673505783E-2,2.875642776E-1,3.595674038E-1
9.652881112E0,-2.153599262E-1,2.227401733E-2,3.954060078E-1
9.672780799E0,-4.711854458E-1,-1.660718918E-1,5.702687502E-1
9.692697257E0,-3.943996429E-1,-1.859922409E-1,5.257157087E-1
9.712572205E0,-7.626056671E-2,-1.662635803E-1,3.338863850E-1
9.732451164E0,-7.591295242E-2,-1.594095230E-1,3.703683615E-1
9.752322778E0,-2.882897854E-1,-1.210365295E-1,5.077949762E-1
9.772241580E0,-2.682144642E-1,-1.125259399E-1,6.679164171E-1
9.792120799E0,-2.255864143E-1,-2.905902863E-1,7.883129120E-1
9.812009914E0,-2.638273239E-1,-4.506902695E-1,7.565321922E-1
9.831908976E0,-1.812722683E-1,-3.640375137E-1,6.103148460E-1
9.851811789E0,9.893751144E-2,-3.406362534E-1,5.783402920E-1
9.871677570E0,6.281630993E-1,-7.180013657E-1,8.791854382E-1
9.891562362E0,1.459675431E0,-7.390041351E-1,7.385640144E-1
9.911465174E0,1.112662554E0,-2.540912628E-1,-4.882597923E-2
9.931371268E0,-3.330011368E-1,1.070976257E-3,9.185230732E-2
9.951247257E0,-3.229634762E-1,6.373376846E-1,9.843021631E-1
9.971157518E0,4.011607170E-1,1.072951317E0,5.584459305E-1
9.991028976E0,8.064448833E-1,9.737024307E-1,-4.297554493E-1
1.001090294E1,9.607255459E-1,1.100934029E0,-3.470451832E-1
1.003081689E1,6.466932297E-1,8.623991013E-1,-1.563333273E-1
1.005071679E1,2.321140766E-1,3.161783218E-1,-1.219372749E-1
1.007058642E1,-1.467564106E-1,-5.523300171E-2,-9.927725792E-2
1.009052007E1,-4.473319054E-1,-2.238807678E-1,-1.943376064E-1
1.011037387E1,-6.962511539E-1,-1.371002197E-1,-3.122335672E-1
1.013025236E1,-7.691819668E-1,-1.150026321E-1,-2.597150803E-1
1.015017137E1,-8.197872639E-1,-6.878852844E-3,-4.455033541E-1
1.017004924E1,-7.986912727E-1,4.295291901E-1,-6.945031285E-1
1.018992059E1,-7.779953480E-1,3.537530899E-1,-5.423213243E-1
1.020982080E1,-7.112228870E-1,-2.528944016E-1,9.351348877E-2
1.022973101E1,-5.443894863E-1,-7.607917786E-1,8.182330132E-1
1.024959913E1,-3.332011700E-1,-6.157531738E-1,1.008671522E0
1.026950335E1,7.828831673E-2,-1.102933884E-1,6.990671158E-1
1.028937991E1,4.379103184E-1,2.182960510E-3,2.966722250E-1
1.030927924E1,5.087068081E-1,-1.944513321E-1,1.253068447E-1
1.032916163E1,3.347918987E-1,-1.752386093E-1,3.680205345E-2
1.034905674E1,2.862164974E-1,-2.088003159E-1,-1.379222870E-1
1.036897309E1,1.117920876E-1,-6.386032104E-1,2.327724695E-1
1.038886012E1,-3.282549381E-1,-1.224377632E0,1.167530775E0
1.040875741E1,-6.595828533E-1,-2.254018784E0,2.084277391E0
1.042865106E1,-7.849791050E-1,-3.421885967E0,3.141158104E0
1.044858976E1,-5.406260490E-1,-4.929053783E0,4.313555717E0
1.046842174E1,2.369956970E-1,-6.317213535E0,5.062165260E0
1.048831038E1,1.583872795E0,-6.918138981E0,5.538514137E0
1.050821794E1,3.557777882E0,-6.256155491E0,5.964117050E0
1.052810523E1,5.919948101E0,-4.263739586E0,5.788073540E0
1.054797002E1,7.675388336E0,8.668537140E-1,5.400303841E0
1.056787517E1,8.959054947E0,1.204068756E1,4.663637161E0
1.058775221E1,8.479963303E0,2.820437622E1,8.832150698E-1
1.060765960E1,5.026810646E0,4.683751297E1,-7.434471607E0
1.062757486E1,-5.340538979E0,5.584282303E1,-1.195914841E1
1.064744205E1,-1.573212814E1,4.868407059E1,-1.813073540E1
1.066735116E1,-1.704040909E1,3.436051941E1,-3.751536942E1
1.068724523E1,-8.818828583E0,1.898765564E1,-5.329260635E1
1.070712908E1,-2.103451729E0,7.184431076E0,-5.468436050E1
1.072700559E1,-4.821079254E0,-8.773114204E0,-5.811796951E1
1.074691887E1,-9.212733269E0,-3.489325333E1,-6.567255402E1
1.076677809E1,-6.640266418E0,-5.279000473E1,-5.707552338E1
1.078668382E1,-4.801683426E-1,-4.564826965E1,-3.548724747E1
1.080658413E1,7.760265350E0,-4.555082321E1,-2.336234474E1
1.082647663E1,1.100626755E1,-4.584991074E1,-1.536663628E1
1.084638783E1,7.322448730E0,-3.875942230E1,-5.095060349E0
1.086625773E1,3.415042400E0,-3.277846527E1,7.037949562E-1
1.088614997E1,-5.519676208E-2,-2.787093544E1,3.096446276E0
1.090602455E1,-3.422002792E0,-2.369132805E1,4.727427483E0
1.092590257E1,-4.783743858E0,-1.966802216E1,5.600785255E0
1.094579820E1,-4.006898880E0,-1.431762218E1,5.911768913E0
1.096568809E1,-3.195652008E0,-8.990741730E0,5.833119392E0
1.098558642E1,-4.008782387E0,-3.941629171E0,4.731208801E0
1.100552335E1,-5.248401642E0,8.199071884E-1,3.358236790E0
1.102537903E1,-5.157297611E0,2.887196064E0,1.973655701E0
1.104527038E1,-4.417384624E0,3.382657528E0,8.913865089E-1
1.106517325E1,-3.908134937E0,4.206872940E0,4.734766483E-1
1.108506424E1,-3.244426250E0,4.003367424E0,-3.981091976E-1
1.110493153E1,-2.022180080E0,2.615232468E0,-1.512732267E0
1.112485283E1,-6.863970757E-1,1.145639420E0,-1.959304571E0
1.114473283E1,4.591822624E-1,8.368406296E-1,-1.443602562E0
1.116464653E1,1.525369883E0,7.648649216E-1,-1.110778213E0
1.118455132E1,2.622942686E0,4.414710999E-1,-1.802046061E0
1.120439695E1,3.236388206E0,2.724523544E-1,-2.170774937E0
1.122430226E1,3.217328072E0,3.381757736E-1,-1.965365410E0
1.124420085E1,3.069458008E0,6.968564987E-1,-1.345525026E0
1.126408622E1,3.084414959E0,8.970060349E-1,-1.023495197E0
1.128395476E1,2.835174561E0,8.746938705E-1,-1.564997196E0
1.130384674E1,2.544663906E0,7.606105804E-1,-1.850347042E0
1.132375283E1,2.126123905E0,5.688037872E-1,-1.504948139E0
1.134362194E1,2.053936005E0,6.570253372E-1,-1.136144876E0
1.136355247E1,2.348193645E0,5.961694717E-1,-1.134452224E0
1.138342648E1,2.715509415E0,2.136240005E-1,-9.981799126E-1
1.140331194E1,2.569412708E0,-3.950977325E-2,-4.817540646E-1
1.142321450E1,2.453797579E0,1.151533127E-1,-6.513834000E-3
1.144310424E1,2.580736160E0,5.770292282E-1,8.780288696E-2
1.146297882E1,2.626877785E0,7.099180222E-1,4.270029068E-2
1.148288408E1,2.415972710E0,5.469188690E-1,6.839609146E-2
1.150277825E1,1.817013264E0,5.977869034E-1,3.308117390E-2
1.152268262E1,1.563879967E0,9.931716919E-1,-1.544654369E-2
1.154258616E1,1.733907938E0,1.152570724E0,2.685260773E-2
1.156242278E1,1.832712531E0,8.711004257E-1,1.690406799E-1
1.158231445E1,1.294569373E0,5.825538635E-1,3.291716576E-1
1.160225382E1,1.004372001E0,7.260112762E-1,2.858555317E-1
1.162210642E1,9.630982876E-1,9.236860275E-1,1.007910967E-1
1.164200450E1,9.637111425E-1,9.060859680E-1,5.745935440E-2
1.166190512E1,9.175010920E-1,6.003208160E-1,2.504193783E-2
1.168177632E1,5.841085911E-1,3.342485428E-1,6.131315231E-2
1.170168637E1,2.115890980E-1,4.018878937E-1,1.694775820E-1
1.172158898E1,3.508813381E-1,5.228195190E-1,8.377349377E-2
1.174146705E1,5.871353149E-1,3.335809708E-1,-4.360795021E-2
1.176135533E1,3.466818333E-1,8.100032806E-2,-7.765591145E-2
1.178125752E1,-8.546233177E-2,2.056903839E-1,-3.516423702E-2
1.180111986E1,-8.009481430E-2,4.551877975E-1,-1.105666161E-2
1.182105163E1,1.974725723E-1,4.027185440E-1,-1.438999176E-1
1.184090872E1,2.300739288E-1,2.923421860E-1,-6.429445744E-2
1.186083309E1,8.932399750E-2,1.817789078E-1,1.664488316E-1
1.188071846E1,-1.196882725E-1,9.677314758E-2,2.377482653E-1
1.190061929E1,-7.531738281E-2,1.441659927E-1,1.981803179E-1
1.192051799E1,1.394000053E-1,-1.505851746E-2,1.289463043E-2
1.194035846E1,1.788058281E-1,-2.279529572E-1,-3.511786461E-3
1.196032898E1,-2.024555206E-2,-2.014560699E-1,1.654280424E-1
1.198014497E1,-1.292796135E-1,-2.192192078E-1,1.021869183E-1
1.200005226E1,-6.977081299E-3,-2.509222031E-1,-1.019129753E-1
1.201993955E1,1.432502270E-1,-1.669101715E-1,-1.089109182E-1
1.203985866E1,5.218267441E-2,-6.159210205E-2,3.948390484E-2
1.205973059E1,-1.588640213E-1,-1.219234467E-1,2.822049856E-1
1.207962320E1,-4.526870251E-1,-1.859331131E-1,3.729941845E-1
1.209950403E1,-4.749040604E-1,-7.024097443E-2,2.656514645E-1
1.211937804E1,-3.090865612E-1,8.398246765E-2,6.553733349E-2
1.213929366E1,-1.520795822E-1,1.272020340E-1,7.586717606E-2
1.215915299E1,3.261804581E-3,3.612136841E-2,2.880803347E-1
1.217907304E1,-7.540345192E-2,2.153205872E-2,3.605554104E-1
1.219894038E1,-2.760086060E-1,1.670074463E-1,1.918621063E-1
1.221885616E1,-4.766883850E-1,2.911510468E-1,1.766725779E-1
1.223875658E1,-5.090837479E-1,3.710489273E-1,1.881035566E-1
1.225864179E1,-1.978683472E-1,5.758619308E-1,1.693785191E-2
1.227856622E1,1.233105659E-1,4.898948669E-1,-3.220725060E-2
1.229840403E1,4.748343229E-1,-8.769035339E-2,1.917662621E-1
1.231831773E1,8.654507399E-1,-7.679595947E-1,2.698355913E-1
1.233820564E1,7.690787315E-1,-1.322926521E0,3.528034687E-2
1.235809653E1,2.727445364E-1,-1.780928612E0,-1.543936729E-1
1.237798247E1,-3.659462929E-2,-2.233595371E0,-1.793859005E-1
1.239788523E1,8.437943459E-2,-2.916376114E0,-1.267778873E-2
1.241774606E1,2.198865414E-1,-3.985900402E0,7.742334604E-1
1.243767408E1,2.244784832E-1,-5.110362053E0,1.991465569E0
1.245755200E1,5.842449665E-1,-5.995967865E0,3.083786011E0
1.247743705E1,1.184109449E0,-6.740140915E0,4.108286381E0
1.249731372E1,1.708465815E0,-7.079634666E0,5.745078087E0
1.251722038E1,2.781736374E0,-6.145606041E0,7.577126503E0
1.253709799E1,4.336548328E0,-3.914005041E0,8.500928879E0
1.255701314E1,4.528827667E0,3.467297554E-1,9.368986130E0
1.257689059E1,2.744546890E0,8.479329109E0,1.080730724E1
1.259681080E1,-1.661075592E0,1.990800667E1,1.072608376E1
1.261666387E1,-1.092988110E1,3.033678055E1,6.934922218E0
1.263657044E1,-2.446895599E1,4.381430817E1,-2.040262699E0
1.265646184E1,-2.854694939E1,5.315863419E1,-1.788899040E1
1.267633627E1,-2.210707474E1,3.820067215E1,-3.532912827E1
1.269626059E1,-1.562879467E1,1.517426586E1,-4.876676178E1
1.271612476E1,-9.650547981E0,3.112928867E0,-5.049711609E1
1.273602830E1,-9.746026039E0,-6.767990112E0,-5.256739807E1
1.275589872E1,-1.205264950E1,-2.402574539E1,-5.826498032E1
1.277581273E1,-8.213357925E0,-4.011544418E1,-5.730866623E1
1.279570012E1,-2.154197693E-1,-5.596160507E1,-5.302845383E1
1.281558215E1,6.625763893E0,-5.056395721E1,-3.531153488E1
1.283549023E1,1.182010651E1,-4.449811172E1,-2.187898254E1
1.285535840E1,1.080862617E1,-4.355652618E1,-1.620996666E1
1.287528184E1,9.820436478E0,-4.234487915E1,-9.124849319E0
1.289517023E1,6.774226665E0,-3.692671585E1,-7.373189926E-2
1.291504252E1,4.533724308E0,-3.033673286E1,3.942564964E0
1.293495986E1,3.375708580E0,-2.522627640E1,4.283196926E0
1.295484127E1,6.153124332E0,-2.547294807E1,6.859322071E0
1.297475580E1,3.649456501E0,-1.469359207E1,1.319994354E1
1.299464570E1,-3.347712517E0,-6.644154072E0,9.286786079E0
1.301455038E1,-2.316529274E0,-7.836605549E0,4.131627083E-1
1.303438695E1,-9.576816559E-1,-1.033529401E0,3.192462921E-1
1.305430153E1,-4.484483719E0,4.047381401E0,1.180315495E0
1.307417179E1,-7.352500439E0,4.279447556E0,5.170106888E-1
1.309407747E1,-6.702556610E0,4.712679863E0,7.617688179E-2
1.311396653E1,-3.997766018E0,4.867828369E0,-1.227404833E0
1.313385715E1,-1.406695843E0,4.526150703E0,-2.100252151E0
1.315375304E1,9.802770615E-2,3.828496933E0,-1.528276920E0
1.317363038E1,7.309684753E-1,2.592265606E0,-6.256606579E-1
1.319354700E1,1.328344345E0,1.021322727E0,-7.875626087E-1
1.321340726E1,1.556725025E0,3.795232773E-1,-1.408584595E0
1.323331564E1,1.840281487E0,8.359203339E-1,-1.392737985E0
1.325319564E1,2.261240005E0,1.123699188E0,-1.216454506E0
1.327310648E1,2.680634499E0,9.743461609E-1,-1.076879263E0
1.329298168E1,2.848750114E0,5.583086014E-1,-1.178868294E0
1.331285934E1,3.148647308E0,3.521442413E-1,-1.678490877E0
1.333276679E1,3.323773384E0,2.426033020E-1,-1.969717741E0
1.335269434E1,3.422418356E0,5.091876984E-1,-1.627959013E0
1.337256898E1,3.581232071E0,8.582153320E-1,-1.167357445E0
1.339243528E1,3.718649626E0,7.784223557E-1,-1.163517237E0
1.341233340E1,3.704829216E0,3.484449387E-1,-1.397034645E0
1.343223689E1,3.474190950E0,4.310836792E-1,-1.262293100E0
1.345209788E1,3.085953712E0,7.481403351E-1,-4.733927250E-1
1.347198570E1,2.562313557E0,5.682096481E-1,4.385924339E-1
1.349189658E1,2.406776428E0,1.806201935E-1,6.624152660E-1
1.351180335E1,2.193215370E0,1.940307617E-1,3.800287247E-1
1.353166611E1,1.874880672E0,5.893936157E-1,7.725226879E-2
1.355159887E1,1.556196928E0,9.509859085E-1,-1.181484461E-1
1.357150934E1,1.281551361E0,9.721164703E-1,-1.065658331E-1
1.359133616E1,1.086267352E0,9.113206863E-1,-8.122563362E-2
1.361125697E1,1.078083754E0,7.445211411E-1,-1.477074623E-1
1.363111286E1,9.230449200E-1,7.315368652E-1,-4.656469822E-2
1.365101390E1,9.038951397E-1,7.230243683E-1,8.607614040E-2
1.367089395E1,7.706022263E-1,5.436201096E-1,3.272294998E-2
1.369081265E1,5.490808487E-1,4.772462845E-1,5.528211594E-3
1.371071000E1,4.582877159E-1,3.855733871E-1,-2.581751347E-2
1.373058208E1,4.705250263E-1,2.679071426E-1,-5.298745632E-2
1.375051546E1,6.067240238E-1,1.067199707E-1,-4.100382328E-2
1.377038791E1,6.789085865E-1,1.059722900E-2,-1.830750704E-1
1.379026546E1,6.138217449E-1,2.514514923E-1,-3.778986335E-1
1.381017291E1,5.231332779E-1,3.188047409E-1,-4.525339603E-1
1.383006479E1,3.238689899E-1,6.909656525E-2,-3.543043137E-2
1.384995385E1,-1.926310062E-1,-1.623611450E-1,4.573359489E-1
1.386984864E1,-5.800704956E-1,-2.311706543E-3,6.491273642E-1
1.388972687E1,-5.319619179E-1,2.391529083E-1,5.147042274E-1
1.390961260E1,-3.503961563E-1,3.211641312E-1,3.485234976E-1
1.392950562E1,-2.061214447E-1,2.380962372E-1,2.960892916E-1
1.394938286E1,-1.553573608E-1,2.163829803E-1,3.616538048E-1
1.396927796E1,-1.366539001E-1,2.474594116E-1,4.370361567E-1
1.398918500E1,-2.947330475E-2,2.306003571E-1,4.120434523E-1
1.400908281E1,4.625296593E-2,1.896934509E-1,2.141903639E-1
1.402896458E1,-8.871555328E-4,8.600425720E-2,1.004493237E-1
1.404882864E1,-7.696747780E-2,3.574562073E-2,2.079005241E-1
1.406874020E1,-9.176397324E-2,-5.399990082E-2,1.599454880E-1
1.408863447E1,-8.638429642E-2,-8.849906921E-2,5.558705330E-2
1.410853552E1,-2.698128223E-1,1.434059143E-1,-1.454225779E-1
1.412841958E1,-6.367104053E-1,4.746246338E-2,-2.439419627E-1
1.414830088E1,-8.544740677E-1,-2.030429840E-1,-2.169499397E-1
1.416821874E1,-7.574903965E-1,-2.123594284E-1,-2.743847966E-1
1.418807864E1,-5.675938129E-1,-3.179645538E-2,-4.113785028E-1
1.420796734E1,-5.250420570E-1,-5.713176727E-1,-5.422614217E-1
1.422785151E1,-5.749495029E-1,-1.258125305E0,-3.819746375E-1
1.424777192E1,-5.186057091E-1,-1.787985802E0,-5.030637980E-2
1.426764734E1,-2.033429146E-1,-2.308799267E0,1.690083146E-1
1.428753474E1,2.310771942E-1,-2.760317326E0,6.657407880E-1
1.430740947E1,-2.410435677E-2,-3.454735756E0,1.440285444E0
1.432731505E1,4.012298584E-2,-4.220157623E0,1.814323902E0
1.434723427E1,8.690330982E-1,-5.579928398E0,2.464184046E0
1.436710078E1,1.755779505E0,-6.954803944E0,3.852258444E0
1.438700312E1,2.098957777E0,-7.459542751E0,5.402905464E0
1.440688067E1,3.352150679E0,-7.343809605E0,5.336154461E0
1.442679333E1,5.857428551E0,-4.930148125E0,4.819587231E0
1.444668395E1,7.805011749E0,5.683732033E-1,4.200153828E0
1.446659343E1,7.943281174E0,9.956062317E0,3.149874449E0
1.448649005E1,3.137252331E0,2.349955177E1,1.180533409E0
1.450634468E1,-3.100671768E0,4.016632462E1,-5.375298977E0
1.452623322E1,-3.892889977E0,5.378361893E1,-9.408433914E0
1.454611666E1,-6.029621124E0,4.877758026E1,-1.210210419E1
1.456600161E1,-9.711285591E0,3.389989090E1,-3.008616066E1
1.458590166E1,-3.290863991E0,2.183566856E1,-4.961128998E1
1.460579437E1,7.005937576E0,9.456068039E0,-4.300798416E1
1.462568140E1,1.198451328E1,-4.475946426E0,-4.172332382E1
1.464559880E1,9.901061058E0,-2.756052780E1,-6.095713425E1
1.466549317E1,6.624624729E0,-5.319008255E1,-6.175814819E1
1.468538187E1,4.339770794E0,-5.071512222E1,-4.273548889E1
1.470526145E1,1.014494991E1,-4.293027496E1,-3.393146515E1
1.472514755E1,1.426975727E1,-4.680492020E1,-2.888925934E1
1.474507192E1,1.272332859E1,-4.402568817E1,-1.831095314E1
1.476494989E1,9.531902313E0,-3.657672119E1,-6.460664749E0
1.478480750E1,6.317542076E0,-3.409012222E1,2.016448975E-1
1.480471911E1,4.061271667E0,-3.114490318E1,4.009770870E0
1.482464276E1,2.715282440E0,-2.582563210E1,6.464129925E0
1.484453994E1,1.630677700E0,-2.147531891E1,7.163664818E0
1.486439099E1,2.761649132E0,-1.582300377E1,6.153965473E0
1.488428265E1,3.493417263E0,-1.084994888E1,4.720032692E0
1.490418385E1,1.479950428E0,-5.906342030E0,3.961593151E0
1.492407406E1,-1.367735863E0,3.330508471E-1,2.376303196E0
1.494394796E1,-4.922835350E0,4.077909946E0,-8.079147339E-2
1.496385057E1,-7.518981934E0,4.419044495E0,-8.329485655E-1
1.498374322E1,-7.327521324E0,5.261451721E0,-3.339068890E-1
1.500362416E1,-5.522345543E0,5.930571079E0,-8.423879147E-1
1.502354302E1,-3.352226257E0,5.513598442E0,-2.709180832E0
1.504343093E1,-1.342285633E0,4.685780048E0,-2.834047079E0
1.506330552E1,1.561264992E-1,3.507980824E0,-7.990864515E-1
1.508321406E1,7.930388451E-1,2.047136307E0,-1.999758482E-1
1.510308729E1,1.268317223E0,1.063103676E0,-9.282951951E-1
1.512298224E1,2.104580879E0,6.232628822E-1,-1.178414226E0
1.514288291E1,2.964894533E0,7.949018478E-1,-7.682640553E-1
1.516276916E1,3.461297989E0,5.107860565E-1,-3.114951849E-1
1.518266510E1,3.525915861E0,3.804779053E-2,-3.159977198E-1
1.520258843E1,3.735583305E0,4.635238647E-2,-7.195295691E-1
1.522243494E1,3.980227947E0,1.992626190E-1,-9.825384617E-1
1.524231244E1,3.983098745E0,3.777265549E-1,-8.183755875E-1
1.526222036E1,4.065293312E0,4.584398270E-1,-4.840060472E-1
1.528212041E1,3.695191622E0,-7.907867432E-3,-5.788207054E-2
1.530198546E1,3.257238388E0,-1.599311829E-1,3.005006313E-1
1.532189958E1,3.060849905E0,4.035520554E-1,7.624936104E-2
1.534178171E1,2.875815868E0,9.200258255E-1,-2.856223583E-1
1.536169104E1,2.589575768E0,1.074754715E0,-2.980073690E-1
1.538156364E1,2.071955204E0,1.018793106E0,2.760481834E-2
1.540147843E1,1.572780848E0,9.514770508E-1,1.285778284E-1
1.542134489E1,1.613080263E0,9.430332184E-1,-3.514659405E-2
1.544123078E1,1.767363667E0,9.259052277E-1,-3.079426289E-2
1.546114281E1,1.867263317E0,8.354949951E-1,1.848936081E-1
1.548104177E1,1.778324842E0,6.050386429E-1,6.660461426E-2
1.550092979E1,1.557829618E0,7.499704361E-1,-6.935811043E-2
1.552080828E1,1.333875418E0,7.565269470E-1,-7.156169415E-2
1.554072302E1,1.152566671E0,5.055522919E-1,-8.945429325E-2
1.556063229E1,9.242255688E-1,3.541488647E-1,-3.258061409E-2
1.558053005E1,7.196109295E-1,5.013961792E-1,-7.449293137E-2
1.560038072E1,7.567286491E-1,6.150970459E-1,-1.539504528E-1
1.562024578E1,7.924234867E-1,5.028409958E-1,-1.003227234E-1
1.564018104E1,6.028873920E-1,2.839927673E-1,-1.558661461E-2
1.566004062E1,5.133554935E-1,1.933326721E-1,6.275904179E-2
1.567994651E1,4.568984509E-1,2.798728943E-1,4.012465477E-2
1.569983885E1,3.851490021E-1,3.557281494E-1,-6.525039673E-2
1.571972781E1,3.721458912E-1,2.901754379E-1,5.828475952E-2
1.573959354E1,2.993035316E-2,1.033954620E-1,3.520286083E-1
1.575953010E1,-3.712582588E-1,2.927207947E-2,3.608870506E-1
1.577939333E1,-4.263198376E-1,1.124582291E-1,1.004334688E-1
1.579926234E1,-2.909970284E-1,2.782649994E-1,-5.144977570E-2
1.581918812E1,-7.914328575E-2,1.940174103E-1,5.228888988E-2
1.583907312E1,1.462841034E-2,-8.184337616E-2,1.852700710E-1
1.585894161E1,-2.323532104E-2,-2.756776810E-1,1.551674604E-1
1.587884359E1,-2.638902664E-1,-2.852821350E-1,5.832242966E-2
1.589873104E1,-4.517173767E-1,-1.415338516E-1,9.636878967E-2
1.591866380E1,-5.086159706E-1,-1.410713196E-1,2.007848024E-1
1.593855682E1,-5.351536274E-1,-3.436365128E-1,2.033426762E-1
1.595839645E1,-5.062680244E-1,-3.767843246E-1,1.149899960E-1
1.597831333E1,-5.886254311E-1,-2.394142151E-1,4.703044891E-3
1.599818640E1,-7.737615108E-1,-2.006053925E-2,-2.958726883E-2
1.601806630E1,-8.821280003E-1,-1.332283020E-2,-3.741025925E-3
1.603798124E1,-8.319466114E-1,-2.420444489E-1,4.795360565E-2
1.605787010E1,-6.838514805E-1,-3.050308228E-1,-2.683925629E-2
1.607776635E1,-6.780660152E-1,-2.225685120E-2,-4.475008845E-1
1.609763338E1,-6.565186977E-1,1.686658859E-1,-6.422792673E-1
1.611755250E1,-4.664993286E-1,-2.463493347E-1,-4.175173640E-1
1.613743109E1,-1.035218239E-1,-7.116403580E-1,-2.570927739E-1
1.615731244E1,1.341903210E-1,-6.631898880E-1,-4.465028644E-1
1.617724619E1,3.517105579E-1,-5.952224731E-1,-5.579777956E-1
1.619708666E1,7.647047043E-1,-1.011983871E0,-4.102429748E-1
1.621697380E1,1.475280643E0,-1.637227058E0,-1.083066463E-1
1.623687989E1,2.179756641E0,-2.154698849E0,1.852248907E-1
1.625676609E1,3.007275105E0,-2.632576466E0,3.678644300E-1
1.627666963E1,3.733376741E0,-3.521062374E0,8.862013817E-1
1.629658072E1,3.155974865E0,-4.741564751E0,1.498171210E0
1.631647671E1,1.804457903E0,-5.902172089E0,2.017725229E0
1.633632989E1,1.070292473E0,-6.661176682E0,2.803868055E0
1.635622822E1,8.553419113E-1,-6.795439243E0,3.943978786E0
1.637612666E1,5.648708344E-1,-6.367172718E0,4.823363781E0
1.639602880E1,4.440178871E-1,-4.776315689E0,5.205937386E0
1.641592724E1,2.294673920E-1,-1.635297298E0,5.109933853E0
1.643581531E1,-1.910720348E0,1.905814648E0,4.195435047E0
1.645568109E1,-8.257627487E0,6.925589561E0,2.917484760E0
1.647558260E1,-1.637387466E1,1.703108215E1,1.133549213E0
1.649547968E1,-2.231300735E1,2.840101433E1,-3.263905525E0
1.651535203E1,-2.809403229E1,3.876618958E1,-1.240986347E1
1.653525802E1,-2.988850403E1,4.645693588E1,-2.370910835E1
1.655516880E1,-1.753861237E1,4.409217453E1,-3.557402420E1
1.657504312E1,-5.296325684E-2,3.328307724E1,-4.756404495E1
1.659492921E1,1.361287022E1,2.300962448E1,-5.491878128E1
1.661483197E1,2.120602036E1,9.372242928E0,-6.220471191E1
1.663472354E1,2.426816750E1,-6.933318138E0,-6.601014709E1
1.665462677E1,2.341054153E1,-2.489902306E1,-6.514202118E1
1.667453724E1,2.489943886E1,-4.822377777E1,-6.670877838E1
1.669440265E1,2.846110916E1,-5.052412033E1,-4.671777344E1
1.671426489E1,2.406059647E1,-4.348460007E1,-2.791312599E1
1.673416958E1,2.111691093E1,-4.677092743E1,-2.260581017E1
1.675406411E1,1.487353325E1,-4.315732956E1,-1.305744457E1
1.677396291E1,6.824492455E0,-3.654377747E1,-5.536138535E0
1.679384598E1,3.659877777E-1,-3.243150330E1,-1.543279409E0
1.681373776E1,-4.809512138E0,-2.671477318E1,2.514121056E0
1.683361849E1,-7.283964157E0,-1.992327118E1,5.394704342E0
1.685354598E1,-6.904525757E0,-1.490467453E1,6.761658669E0
1.687343541E1,-5.000664711E0,-9.953969002E0,7.526296616E0
1.689328354E1,-3.977705956E0,-3.144534349E0,6.926692009E0
1.691321052E1,-5.640563011E0,1.686746836E0,4.616256714E0
1.693309406E1,-8.832293510E0,1.972697258E0,3.279454470E0
1.695298572E1,-9.791460037E0,2.483914852E0,2.965673685E0
1.697285567E1,-7.747154236E0,2.896074295E0,1.579210281E0
1.699277224E1,-4.813152313E0,2.651712418E0,-1.139182091E0
1.701267166E1,-2.677963257E0,2.131241322E0,-2.404696941E0
1.703259854E1,-1.441770554E0,1.507949829E0,-1.990795612E0
1.705241291E1,-9.313035011E-1,1.146772861E0,-2.282311916E0
1.707232927E1,-5.987329483E-1,1.255244255E0,-3.222736597E0
1.709223885E1,1.385421753E-1,1.189797401E0,-3.720480204E0
1.711210843E1,9.688434601E-1,8.201327324E-1,-3.499393940E0
1.713199624E1,2.371068716E0,8.434276581E-1,-3.334846735E0
1.715187468E1,3.147959709E0,1.351297379E0,-3.544131756E0
1.717177036E1,3.323893547E0,1.307520866E0,-3.045778036E0
1.719165468E1,3.699765205E0,6.118412018E-1,-2.606482267E0
1.721160307E1,4.227593422E0,1.979322433E-1,-2.261263371E0
1.723143817E1,4.502227783E0,1.954393387E-1,-1.988730550E0
1.725132979E1,3.980741978E0,1.623916626E-1,-1.562797785E0
1.727123593E1,3.029015064E0,-1.489143372E-1,-9.339517951E-1
1.729114416E1,2.769186258E0,-1.848754883E-1,-5.859004259E-1
1.731102593E1,3.238004446E0,-1.925230026E-1,-3.905291557E-1
1.733092760E1,3.618314505E0,-1.898956299E-1,-1.927748919E-1
1.735079989E1,3.629495859E0,-5.418682098E-2,-1.522221565E-1
1.737070796E1,3.422407627E0,4.278764725E-1,-2.875698805E-1
1.739060479E1,3.273638248E0,7.655258179E-1,-6.483479738E-1
1.741045848E1,2.938750029E0,8.815727234E-1,-8.326408863E-1
1.743036224E1,2.621168852E0,9.267148972E-1,-4.217844009E-1
1.745026348E1,2.314388990E0,6.552152634E-1,-3.283524513E-2
1.747015427E1,2.120748758E0,5.333108902E-1,1.806484461E-1
1.749003895E1,1.982906699E0,5.669775009E-1,1.331478357E-1
1.750992312E1,1.848470807E0,5.107202530E-1,4.051315784E-2
1.752980640E1,1.512311697E0,4.418964386E-1,2.877461910E-2
1.754971874E1,1.260605454E0,5.251874924E-1,-8.377671242E-3
1.756960057E1,1.188860297E0,6.891384125E-1,1.178431511E-2
1.758952088E1,1.152309656E0,7.607078552E-1,1.214027405E-1
1.760939302E1,9.267262220E-1,4.510326385E-1,7.222032547E-2
1.762927354E1,6.268041134E-1,2.233152390E-1,9.662723541E-2
1.764917958E1,4.127008915E-1,1.349964142E-1,1.180586815E-1
1.766907770E1,3.459789753E-1,2.181091309E-1,8.342409134E-2
1.768896609E1,2.605121136E-1,3.265142441E-1,2.480065823E-2
1.770886124E1,2.723886967E-1,2.508096695E-1,1.179411411E-1
1.772874802E1,1.496100426E-1,6.889152527E-2,3.680191040E-1
1.774866208E1,1.808977127E-2,3.554630280E-2,4.272631407E-1
1.776853359E1,-8.844685555E-2,1.181573868E-1,3.364571333E-1
1.778842484E1,-6.342530251E-2,2.388505936E-1,2.720874548E-1
1.780829395E1,7.627582550E-2,1.719083786E-1,1.745289564E-1
1.782820979E1,7.155609131E-2,3.505420685E-2,1.062731743E-1
1.784809557E1,-3.554344177E-2,4.516315460E-2,1.761610508E-1
1.786795921E1,-1.411919594E-1,1.840276718E-1,1.256676912E-1
1.788788302E1,-1.470994949E-1,2.215738297E-1,-3.998398781E-3
1.790776817E1,3.968739510E-2,1.017990112E-1,1.284617186E-1
1.792765942E1,7.649517059E-2,-5.403614044E-2,2.659642696E-1
1.794754958E1,-1.140449047E-1,-1.878833771E-2,2.309073210E-1
1.796744364E1,-3.044872284E-1,8.866405487E-2,1.864106655E-1
1.798730348E1,-3.506271839E-1,4.525375366E-2,1.893600225E-1
1.800723552E1,-3.227005005E-1,-7.587051392E-2,2.185162306E-1
1.802711072E1,-2.220389843E-1,-8.846569061E-2,2.489161491E-1
1.804699645E1,-1.909730434E-1,1.283845901E-1,1.544181108E-1
1.806687229E1,-3.475837708E-1,2.124891281E-1,-2.472662926E-2
1.808675489E1,-5.804750919E-1,1.543273926E-1,-2.163157463E-1
1.810665020E1,-8.851952553E-1,1.237668991E-1,-3.811405897E-1
1.812655583E1,-1.185049057E0,2.068290710E-1,-4.580893517E-1
1.814644724E1,-1.093567133E0,2.756452560E-1,-5.301063657E-1
1.816634067E1,-6.906454563E-1,1.792011261E-1,-4.862335324E-1
1.818623416E1,-3.532736301E-1,-4.392700195E-1,9.199082851E-2
1.820612468E1,-4.059910774E-2,-1.073246956E0,7.864921093E-1
1.822599765E1,2.427024841E-1,-1.377493382E0,7.758910656E-1
1.824589208E1,3.251440525E-1,-1.300249577E0,1.004484892E-1
1.826579062E1,1.595261097E-1,-1.206907272E0,-5.693335533E-1
1.828568791E1,1.822545528E-1,-1.253690243E0,-6.891092062E-1
1.830557317E1,5.575015545E-1,-1.358446598E0,-3.560526967E-1
1.832548364E1,9.566094875E-1,-1.566672802E0,-1.713044047E-1
1.834536718E1,1.623911381E0,-1.876955032E0,1.201347709E-1
1.836524614E1,2.683216572E0,-1.751579762E0,5.384189487E-1
1.838515354E1,3.552561522E0,-1.894487381E0,1.070098162E0
1.840503640E1,3.919059038E0,-2.808473110E0,2.250733376E0
1.842492484E1,4.417323112E0,-3.351197720E0,3.580027103E0
1.844484359E1,4.940684795E0,-3.123375416E0,4.860597610E0
1.846475901E1,4.984466076E0,-1.526367188E0,6.358167648E0
1.848464421E1,5.664303780E0,2.224404812E0,7.082674980E0
1.850452083E1,6.109158039E0,7.922054768E0,7.816064835E0
1.852439812E1,2.700980663E0,1.523226547E1,9.376731873E0
1.854426828E1,-4.580248833E0,2.426477623E1,1.144475079E1
1.856420093E1,-1.327975655E1,3.067156219E1,1.086940575E1
1.858407119E1,-2.090793228E1,3.729505920E1,1.256967783E0
1.860394630E1,-1.973793221E1,4.270496368E1,-1.501800156E1
1.862385302E1,-8.738327980E0,3.613752747E1,-3.315959930E1
1.864374156E1,7.360434055E0,2.417760086E1,-4.662079239E1
1.866364401E1,2.162029648E1,1.071526337E1,-5.901722717E1
1.868352166E1,2.458447075E1,-3.576111555E0,-6.416764832E1
1.870339911E1,1.961269760E1,-1.721535492E1,-6.080706787E1
1.872328807E1,1.617289734E1,-2.809410095E1,-5.387865829E1
1.874320750E1,2.227673912E1,-3.614828491E1,-4.898474121E1
1.876306541E1,2.466496468E1,-3.866735077E1,-3.518954468E1
1.878297624E1,1.874812698E1,-3.722394943E1,-2.232758331E1
1.880286760E1,1.384817410E1,-4.088793182E1,-1.670012665E1
1.882276729E1,8.804257393E0,-3.950748825E1,-1.095277977E1
1.884268651E1,4.260132790E0,-3.575325394E1,-6.041563988E0
1.886258546E1,-8.400478363E-1,-3.181931305E1,-2.518376350E0
1.888241703E1,-4.278274536E0,-2.600029945E1,8.790546656E-1
1.890232708E1,-5.024263382E0,-2.036359787E1,3.246470213E0
1.892223624E1,-2.378735542E0,-1.700165367E1,5.522644520E0
1.894211244E1,-3.197463036E0,-1.065822983E1,6.486433983E0
1.896201250E1,-2.873090744E0,-8.122308731E0,5.173961639E0
1.898186848E1,-2.243580818E0,-2.875330687E0,5.137257099E0
1.900176848E1,-2.642714500E0,2.111109734E0,4.233638763E0
1.902167276E1,-3.628469467E0,3.128597260E0,2.872102976E0
1.904157963E1,-4.802737236E0,2.756767273E0,1.999866128E0
1.906148635E1,-4.540402889E0,2.970077038E0,6.561720371E-1
1.908138312E1,-2.790854931E0,3.186059475E0,-1.385526896E0
1.910122968E1,-1.064218521E0,2.976330757E0,-2.813172817E0
1.912110833E1,2.982473373E-2,2.812045097E0,-2.767032146E0
1.914101906E1,7.440185547E-1,2.091093063E0,-2.468691587E0
1.916090447E1,6.912593842E-1,1.264534950E0,-2.267769337E0
1.918078994E1,1.082319736E0,1.167616844E0,-2.023344755E0
1.920071250E1,1.764859915E0,1.486147881E0,-1.622393727E0
1.922060224E1,2.257177353E0,1.574718475E0,-1.992946625E0
1.924052119E1,2.876226902E0,1.462681770E0,-2.606982470E0
1.926037479E1,3.264531374E0,1.226346016E0,-2.857598066E0
1.928025916E1,3.563079834E0,1.067454338E0,-2.716117859E0
1.930014781E1,3.511971951E0,7.619676590E-1,-2.451660156E0
1.932005677E1,3.600434065E0,5.861129761E-1,-2.172897816E0
1.933991921E1,3.708164454E0,2.941150665E-1,-1.905514240E0
1.935982833E1,3.580412626E0,1.717309952E-1,-1.307171226E0
1.937971916E1,3.646298409E0,3.970842361E-1,-9.098949432E-1
1.939962520E1,3.868844748E0,7.159328461E-1,-7.315135002E-1
1.941951520E1,3.791808128E0,8.325757980E-1,-3.126392365E-1
1.943938724E1,3.522971869E0,9.492273331E-1,7.804012299E-2
1.945928145E1,3.362354517E0,1.091540337E0,1.404341459E-1
1.947919593E1,3.248885155E0,1.339983940E0,1.274310350E-1
1.949907593E1,3.076214075E0,1.605731010E0,2.857174873E-1
1.951893234E1,2.772154093E0,1.673387527E0,5.164486170E-1
1.953884062E1,2.276082039E0,1.487378120E0,5.361125469E-1
1.955874718E1,1.564977884E0,1.265285492E0,4.157522321E-1
1.957864343E1,8.826774359E-1,1.093564987E0,4.398745298E-1
1.959854567E1,1.761624813E-1,8.685550690E-1,2.768051624E-1
1.961840599E1,-1.220617294E-1,7.965183258E-1,3.335773945E-3
1.963830281E1,-1.125521660E-1,8.057470322E-1,-1.566922069E-1
1.965821052E1,-4.782867432E-2,6.961164474E-1,-1.480427384E-1
1.967808364E1,-2.383351326E-2,4.619474411E-1,6.713259220E-2
1.969795942E1,2.878627777E-1,1.741161346E-1,1.327326298E-1
1.971785380E1,5.582172871E-1,-1.285228729E-1,-1.413464546E-3
1.973778036E1,3.972933292E-1,-2.243852615E-1,7.217741013E-2
1.975766489E1,2.322287560E-1,-2.938947678E-1,1.710873842E-1
1.977753687E1,1.644523144E-1,-6.455917358E-1,1.703867912E-1
1.979747791E1,1.295378208E-1,-7.965087891E-1,2.445850372E-1
1.981731869E1,5.125522614E-2,-8.304195404E-1,1.193822622E-1
1.983722447E1,-4.262852669E-2,-9.045505524E-1,-3.009259701E-2
1.985709906E1,-6.800460815E-2,-8.573932648E-1,1.091088057E-1
1.987700161E1,2.695417404E-2,-5.927371979E-1,1.639218330E-1
1.989687755E1,1.640379429E-1,-2.578325272E-1,8.467352390E-2
1.991676895E1,1.889193058E-1,-1.862554550E-1,1.058595181E-1
1.993669401E1,7.828736305E-2,-1.905345917E-1,2.877626419E-1
1.995658562E1,-2.163550854E-1,-1.184492111E-1,3.686687946E-1
1.997648067E1,-4.269199371E-1,5.385589600E-2,2.954674959E-1
1.999634093E1,-4.541232586E-1,5.971336365E-2,2.462195158E-1
2.001624916E1,-4.173638821E-1,-6.819057465E-2,3.707650900E-1
2.003611130E1,-4.876091480E-1,-1.050338745E-1,4.717149734E-1
2.005601171E1,-6.540057659E-1,-3.673362732E-2,4.513586760E-1
2.007591791E1,-7.236957550E-1,1.059980392E-1,5.150821209E-1
2.009579067E1,-5.243060589E-1,2.077322006E-1,4.477280378E-1
2.011568255E1,-2.139501572E-1,2.993583679E-1,2.935233116E-1
2.013557979E1,2.546072006E-2,2.778854370E-1,1.796894073E-1
2.015546474E1,1.909904480E-1,1.215991974E-1,9.499716759E-2
2.017536937E1,3.859755993E-1,6.454181671E-2,-3.541469574E-2
2.019526062E1,8.354365826E-1,2.342195511E-1,-4.196529388E-1
2.021515500E1,1.568452001E0,1.411056519E-1,-7.724201083E-1
2.023502489E1,2.345379114E0,-4.910669327E-1,-6.912260056E-1
2.025493026E1,2.333746433E0,-1.409535885E0,1.055721045E-1
2.027479713E1,1.603802919E0,-2.275247097E0,5.542415380E-1
2.029470036E1,1.298008442E0,-2.917469501E0,3.314734697E-1
2.031462937E1,1.746291280E0,-3.098007202E0,2.618265152E-2
2.033447781E1,2.699419975E0,-2.924581051E0,-2.151294947E-1
2.035437963E1,3.587244511E0,-3.154281616E0,3.950536251E-2
2.037429838E1,3.899221897E0,-3.429444790E0,9.266204834E-1
2.039417281E1,3.691003561E0,-3.401441097E0,2.114444733E0
2.041407125E1,3.240642071E0,-2.488506317E0,3.717557430E0
2.043396624E1,2.361035347E0,-4.525742531E-1,6.136194706E0
2.045385635E1,8.809947968E-1,2.969433308E0,9.217553139E0
2.047373395E1,-1.457570553E0,8.373062134E0,1.309653664E1
2.049366234E1,-4.744987965E0,1.710650253E1,1.591024780E1
2.051352140E1,-7.494594574E0,2.747948456E1,1.567415333E1
2.053342859E1,-8.360717773E0,3.760154724E1,1.235503674E1
2.055329734E1,-8.311470985E0,4.356910706E1,6.955918312E0
2.057322729E1,-8.683250427E0,4.110848999E1,-1.406646252E0
2.059310067E1,-9.141482353E0,2.911817741E1,-1.309087372E1
2.061298880E1,-1.072936916E1,1.294996834E1,-2.992545700E1
2.063286849E1,-1.254965305E1,8.259466887E-1,-4.602742386E1
2.065277822E1,-1.438977051E1,-1.389449596E1,-5.813280106E1
2.067267572E1,-1.095335579E1,-2.928022957E1,-6.509071350E1
2.069256812E1,-7.988487244E0,-4.463964844E1,-6.103157425E1
2.071241724E1,-7.867441177E-1,-4.804891968E1,-4.428900528E1
2.073233244E1,1.012512112E1,-4.591802216E1,-3.223781586E1
2.075222057E1,1.541422653E1,-5.311073685E1,-2.629457283E1
2.077209125E1,1.325328159E1,-5.343701553E1,-1.664762878E1
2.079198276E1,8.034515381E0,-4.505718613E1,-6.380709648E0
2.081190385E1,4.062340260E0,-4.165954590E1,-9.985196590E-1
2.083178427E1,7.810897827E-1,-4.092222214E1,2.795546055E0
2.085169218E1,-1.091415405E0,-3.516383743E1,6.990876198E0
2.087155885E1,2.436940670E0,-2.988724327E1,1.013684845E1
2.089153052E1,5.474679947E0,-2.160954475E1,1.446567249E1
2.091133671E1,9.303097725E-1,-1.455084419E1,1.018890190E1
2.093125958E1,2.085063934E0,-1.210745811E1,3.643462658E0
2.095113921E1,2.502234936E0,-4.766422749E0,2.101191998E0
2.097103057E1,-7.720069885E-1,1.091014624E0,-4.153680801E-2
2.099089630E1,-3.418660164E0,3.651408195E0,-1.758601904E0
2.101080114E1,-3.870188713E0,4.836219311E0,-2.150057316E0
2.103070630E1,-2.985485077E0,4.752108097E0,-2.512567997E0
2.105062151E1,-1.696647167E0,5.088546753E0,-2.338068008E0
2.107052734E1,-9.169692993E-1,4.717736721E0,-1.528032660E0
2.109035682E1,-7.223873138E-1,3.478003502E0,-9.217649698E-1
2.111024651E1,-4.202146530E-1,2.007096291E0,-7.570149899E-1
2.113016145E1,4.049286842E-1,9.177174568E-1,-4.547586441E-1
2.115005177E1,1.490143776E0,6.791152954E-1,-5.274317265E-1
2.116994026E1,2.268817186E0,6.133317947E-1,-9.457442760E-1
2.118983182E1,2.817535162E0,2.763328552E-1,-1.275342941E0
2.120970546E1,3.004186392E0,2.581377029E-1,-1.141700029E0
2.122959979E1,2.764754772E0,4.285869598E-1,-6.035828590E-1
2.124949604E1,2.662989855E0,8.559675217E-1,-4.560089111E-1
2.126939322E1,2.681525946E0,1.251041412E0,-8.668384552E-1
2.128926671E1,2.779011726E0,1.181269646E0,-1.329168797E0
2.130918416E1,2.813613892E0,9.052190781E-1,-1.423413873E0
2.132904994E1,2.532094479E0,1.141283035E0,-1.126418114E0
2.134894046E1,2.448393345E0,1.289141655E0,-6.934080124E-1
2.136883369E1,2.423026085E0,1.139842987E0,-4.478096962E-1
2.138876755E1,2.734679699E0,1.133903503E0,-4.750647545E-1
2.140866802E1,2.862837076E0,1.162499428E0,-5.901677608E-1
2.142853312E1,2.790308475E0,1.155238152E0,-3.753492832E-1
2.144844854E1,2.583151340E0,1.036422729E0,-2.820289135E-1
2.146831598E1,2.251321077E0,9.117689133E-1,-3.992347717E-1
2.148821000E1,1.932564735E0,9.199304581E-1,-3.523373604E-1
2.150809776E1,1.956840873E0,1.114459038E0,-1.121954918E-1
2.152798651E1,2.137714386E0,9.938535690E-1,-7.972311974E-2
2.154786703E1,2.123348236E0,9.023714066E-1,-3.047370911E-2
2.156777479E1,1.909292936E0,1.035431862E0,-2.176046371E-2
2.158766192E1,1.871364117E0,1.399708748E0,5.087733269E-2
2.160755604E1,1.873057127E0,1.417524338E0,-8.755087852E-2
2.162744864E1,1.723226190E0,1.235439301E0,-2.116367817E-1
2.164730921E1,1.393234730E0,1.234663963E0,-3.586474657E-1
2.166723468E1,1.055165529E0,1.346652985E0,-3.960926533E-1
2.168712947E1,8.082985878E-1,1.123333931E0,-4.503598213E-1
2.170700114E1,6.255874634E-1,6.775846481E-1,-3.078082800E-1
2.172688901E1,3.144266605E-1,2.715969086E-1,-5.987489223E-2
2.174678609E1,1.472158432E-1,-7.683086395E-2,7.191228867E-2
2.176669083E1,-1.331973076E-2,-3.654041290E-1,1.926429272E-1
2.178659000E1,-1.465997696E-1,-4.703140259E-1,5.959196091E-1
2.180648458E1,-1.106095314E-1,-6.064147949E-1,8.269128799E-1
2.182633536E1,-1.637136936E-1,-6.093025208E-1,8.203804493E-1
2.184623177E1,-4.934735298E-1,-6.790370941E-1,7.099931240E-1
2.186614333E1,-7.611234188E-1,-6.681613922E-1,7.206858397E-1
2.188601255E1,-7.674047947E-1,-5.885162354E-1,6.847357750E-1
2.190591885E1,-6.381804943E-1,-3.086805344E-1,6.011747122E-1
2.192581052E1,-4.363512993E-1,-2.132587433E-1,5.955368280E-1
2.194572130E1,-4.389822483E-1,-4.159889221E-1,5.974249840E-1
2.196557776E1,-2.790188789E-1,-3.212461472E-1,6.943954229E-1
2.198548291E1,-6.419134140E-2,4.558467865E-2,6.110011339E-1
2.200535703E1,3.100383282E-1,4.609241486E-1,3.850771189E-1
2.202527343E1,5.505259037E-1,4.603996277E-1,1.873302460E-2
2.204513083E1,4.076557159E-1,3.623008728E-1,-1.336562634E-1
2.206501947E1,3.654396534E-1,2.363433838E-1,-1.727298498E-1
2.208494812E1,3.884165287E-1,7.869434357E-2,-2.778489590E-1
2.210482489E1,3.155066967E-1,7.315063477E-2,-5.133148432E-1
2.212473317E1,1.972658634E-1,7.037734985E-2,-5.550457239E-1
2.214463968E1,1.118993759E-1,-9.646606445E-2,-4.699128866E-1
2.216454505E1,1.413691044E-1,-2.916240692E-1,-4.450906515E-1
2.218437057E1,4.918599129E-2,-1.367244720E-1,-5.497097969E-1
2.220426145E1,-2.586884499E-1,1.267309189E-1,-7.492671013E-1
2.222419593E1,-8.902907372E-2,-2.221174240E-1,-7.452263832E-1
2.224407458E1,5.502104759E-1,-8.770856857E-1,-8.853537440E-1
2.226394005E1,1.246720552E0,-1.274104118E0,-1.203974009E0
2.228385416E1,1.746761799E0,-1.593623638E0,-1.389519453E0
2.230373619E1,1.919953346E0,-1.978133678E0,-8.635340929E-1
2.232362234E1,1.439616919E0,-2.454277992E0,6.731814146E-1
2.234356963E1,9.446065426E-1,-3.043903351E0,2.101274014E0
2.236341692E1,9.772858620E-1,-3.969101429E0,2.796925306E0
2.238331213E1,1.419541359E0,-4.837949753E0,3.429891586E0
2.240322807E1,2.103092432E0,-5.185451984E0,4.329944611E0
2.242309156E1,2.616147280E0,-5.025860786E0,5.427841187E0
2.244297182E1,3.033634663E0,-4.337709427E0,6.119246006E0
2.246287671E1,3.907641888E0,-2.804320812E0,5.576598167E0
2.248278427E1,4.753383160E0,2.126694202E0,4.668750286E0
2.250269052E1,3.118602753E0,1.126073074E1,4.644626617E0
2.252258786E1,-2.604969978E0,2.400153351E1,6.310155392E0
2.254244703E1,-1.255285168E1,3.710325623E1,7.226841450E0
2.256232828E1,-2.099443817E1,4.437475204E1,3.149603844E0
2.258221453E1,-2.413123894E1,4.468992615E1,-6.947467804E0
2.260209927E1,-1.994659424E1,3.798352051E1,-2.212758255E1
2.262201802E1,-1.301726151E1,2.713416862E1,-3.915296173E1
2.264191406E1,-5.704774857E0,1.245156765E1,-5.523328400E1
2.266176505E1,1.664712906E0,-1.456811547E0,-6.137469482E1
2.268166974E1,7.395029068E-1,-1.639763641E1,-5.825617218E1
2.270158406E1,-8.375941277E0,-4.092851257E1,-5.917397308E1
2.272151468E1,-4.832962036E0,-5.513347626E1,-5.104799652E1
2.274136052E1,3.034037590E0,-4.619147110E1,-3.407496262E1
2.276123817E1,9.659405708E0,-4.178128433E1,-2.629800797E1
2.278115197E1,1.351064682E1,-4.304035950E1,-2.032519341E1
2.280100598E1,1.222393990E1,-4.084047699E1,-1.008681488E1
2.282091932E1,1.043410683E1,-3.668320847E1,-2.466494322E0
2.284079187E1,1.069931412E1,-3.230898666E1,4.680500031E-1
2.286072807E1,7.251983643E0,-2.870669174E1,3.229959011E0
2.288062218E1,3.082998276E0,-2.453511429E1,5.542949200E0
2.290050229E1,2.309681416E0,-1.927839851E1,5.535495281E0
2.292039354E1,2.878907204E0,-1.400857544E1,4.607787609E0
2.294025380E1,1.813659668E0,-9.704879761E0,4.102512836E0
2.296016687E1,4.632854462E-2,-5.058153629E0,3.239425182E0
2.298002942E1,-2.468081474E0,9.788661003E-1,1.378316879E0
2.299994479E1,-5.777996063E0,4.861104488E0,2.227399349E-1
2.301983437E1,-7.971794128E0,5.575267792E0,-1.080160141E-1
2.303973645E1,-6.696424484E0,5.508274078E0,-5.563354492E-1
2.305960109E1,-3.660176277E0,5.387217522E0,-1.898280501E0
2.307950588E1,-1.374769211E0,4.767555714E0,-2.785278082E0
2.309941109E1,-2.914900780E-1,3.808290482E0,-2.117367983E0
2.311929875E1,5.363497734E-1,2.729213715E0,-1.300352216E0
2.313919937E1,1.055516243E0,1.621017933E0,-1.234370589E0
2.315905171E1,1.346016407E0,8.555092812E-1,-1.205570221E0
2.317894755E1,1.972108603E0,7.337636948E-1,-1.246031404E0
2.319886614E1,2.681424379E0,8.893060684E-1,-1.239123821E0
2.321876000E1,2.845352888E0,1.064631462E0,-1.189836025E0
2.323867744E1,2.814788580E0,1.077424049E0,-9.440662861E-1
2.325858838E1,3.048726559E0,1.054664612E0,-5.874041319E-1
2.327840192E1,3.355168819E0,1.049432755E0,-2.826902866E-1
2.329828927E1,3.329124451E0,1.131252289E0,-2.968376875E-1
2.331820177E1,3.235940933E0,1.320723534E0,-3.890374899E-1
2.333810614E1,3.307778120E0,1.470848083E0,-6.791256666E-1
2.335799458E1,3.557169199E0,1.365349770E0,-8.913100958E-1
2.337788791E1,3.609874725E0,1.046441078E0,-6.510361433E-1
2.339776500E1,3.539307356E0,7.435846329E-1,-4.149549007E-1
2.341764093E1,3.308187723E0,6.149644852E-1,-3.440752029E-1
2.343754942E1,3.095142841E0,8.125638962E-1,-5.100888014E-1
2.345747645E1,2.836003304E0,7.544431686E-1,-4.761761427E-1
2.347732640E1,2.408047199E0,5.912456512E-1,-1.769795418E-1
2.349721276E1,1.918327451E0,5.993537903E-1,2.875089645E-2
2.351711812E1,1.456257343E0,6.897869110E-1,-8.036780357E-2
2.353699203E1,1.393483400E0,6.672887802E-1,-3.995926380E-1
2.355689640E1,1.330816746E0,5.552864075E-1,-4.772326946E-1
2.357678302E1,8.785054684E-1,4.200639725E-1,-2.231280804E-1
2.359667734E1,5.168695450E-1,3.569021225E-1,-7.885861397E-2
2.361656755E1,6.042871475E-1,4.424123764E-1,-1.528452635E-1
2.363645843E1,9.435713291E-1,5.144243240E-1,-9.744679928E-2
2.365636031E1,1.140334606E0,4.722499847E-1,2.167010307E-2
2.367626750E1,8.743042946E-1,2.602996826E-1,1.179709435E-1
2.369613468E1,5.588455200E-1,2.527513504E-1,1.595759392E-1
2.371603098E1,4.502372742E-1,4.883680344E-1,1.945046186E-1
2.373591468E1,5.800888538E-1,5.323362350E-1,2.355648279E-1
2.375582135E1,7.012269497E-1,4.219541550E-1,3.044013977E-1
2.377568599E1,6.756639481E-1,3.197984695E-1,3.065996170E-1
2.379561567E1,4.714407921E-1,4.654483795E-1,3.563424349E-1
2.381550385E1,5.607001781E-1,5.852479935E-1,3.754545450E-1
2.383536515E1,4.304497242E-1,3.675699234E-1,1.942080259E-1
2.385528604E1,2.631163597E-1,2.640428543E-1,2.029637098E-1
2.387513984E1,2.324841022E-1,1.809778214E-1,2.276816368E-1
2.389504755E1,1.600930691E-1,4.509830475E-2,-8.850598335E-2
2.391492203E1,1.834201813E-1,9.265613556E-2,-1.883188486E-1
2.393484260E1,3.676266670E-1,1.415815353E-1,-1.341755390E-1
2.395472500E1,1.125915051E-1,1.119432449E-1,-9.838092327E-2
2.397464328E1,-3.390727043E-1,1.249761581E-1,5.007076263E-2
2.399454645E1,-7.553215027E-1,6.984424591E-2,1.563768387E-1
2.401442031E1,-1.023481846E0,-1.656532288E-2,1.475681067E-1
2.403427755E1,-1.010980129E0,-5.782032013E-2,1.004875898E-1
2.405418588E1,-8.486037254E-1,-8.762550354E-2,1.056168079E-1
2.407405260E1,-7.328224182E-1,-2.585344315E-1,1.507232189E-1
2.409397312E1,-6.737928391E-1,-3.370656967E-1,1.662387848E-1
2.411384645E1,-2.787566185E-1,-9.150505066E-2,1.854801178E-2
2.413373651E1,7.009489536E-1,1.989135742E-1,-2.073214054E-1
2.415362421E1,2.103073120E0,4.605989456E-1,-4.953407049E-1
2.417354052E1,2.498274803E0,-7.880878448E-2,-1.185845137E0
2.419339354E1,1.778895855E0,-1.013820171E0,-1.825090885E0
2.421331468E1,1.622056246E0,-1.721370220E0,-1.894407749E0
2.423317098E1,2.459860325E0,-2.256505013E0,-1.590024471E0
2.425309250E1,3.073626518E0,-2.677885056E0,-1.137426257E0
2.427296817E1,2.471798897E0,-3.055881500E0,-2.169446945E-1
2.429287947E1,1.446420670E0,-3.417299271E0,1.352335453E0
2.431275927E1,1.280653477E0,-3.979516506E0,2.681841612E0
2.433264890E1,1.780600548E0,-4.873292923E0,3.519191980E0
2.435258130E1,2.210192919E0,-5.421176910E0,4.421049118E0
2.437249562E1,2.179503441E0,-5.353219032E0,5.625474930E0
2.439232911E1,1.981386662E0,-4.248429775E0,6.754839420E0
2.441222817E1,1.913360119E0,-2.037677288E0,7.183428764E0
2.443212458E1,1.168953896E0,1.547394276E0,6.922918797E0
2.445201098E1,-1.366553307E0,6.598506451E0,6.420044422E0
2.447188598E1,-6.271013260E0,1.371662521E1,5.525524616E0
2.449179489E1,-1.315126705E1,2.322905731E1,4.863040447E0
2.451167203E1,-2.120436478E1,3.393972015E1,1.109112263E0
2.453157088E1,-2.871709061E1,4.208724594E1,-1.227367020E1
2.455146468E1,-2.482364655E1,4.392143250E1,-2.820529938E1
2.457133994E1,-1.367767334E1,3.310692596E1,-3.588096237E1
2.459124057E1,-1.116466522E0,1.474401855E1,-4.873640442E1
2.461114552E1,1.152165794E1,-1.260544896E0,-6.239779663E1
2.463101078E1,1.054410362E1,-1.564442921E1,-5.960345840E1
2.465092447E1,6.024647713E0,-3.094793701E1,-5.053495789E1
2.467081187E1,6.493802071E0,-5.560292053E1,-4.335256195E1
2.469074088E1,5.007986069E0,-6.532672882E1,-3.072238922E1
2.471061932E1,8.384138107E0,-4.418837357E1,-2.074603844E1
2.473053020E1,1.584512043E1,-4.100681686E1,-1.846992683E1
2.475036932E1,1.732002258E1,-4.166586685E1,-1.344460106E1
2.477025458E1,1.630359650E1,-3.428554153E1,-4.779756069E0
2.479014526E1,1.305606174E1,-2.800833893E1,1.118827343E0
2.481005708E1,6.515472889E0,-2.497609329E1,3.798839569E0
2.482993708E1,1.845685005E0,-2.200195885E1,4.807577133E0
2.484983234E1,2.712392807E-1,-1.742770004E1,4.913082600E0
2.486971036E1,-6.622371674E-1,-1.205712128E1,5.613213539E0
2.488961369E1,-1.648256302E0,-8.546716690E0,6.236971855E0
2.490952578E1,-2.684649467E0,-4.651021004E0,6.148223877E0
2.492939703E1,-4.037748337E0,2.327042818E-1,5.350415230E0
2.494928239E1,-5.375993729E0,3.139405727E0,3.477150440E0
2.496920317E1,-6.303114891E0,3.188042164E0,1.816311836E0
2.498908645E1,-5.631856918E0,3.820883751E0,1.433655024E0
2.500894744E1,-4.230082512E0,4.781186581E0,7.215445042E-1
2.502884859E1,-2.748637199E0,4.095457077E0,-8.404012322E-1
2.504876755E1,-1.446674347E0,3.180306435E0,-1.644505739E0
2.506864130E1,-5.703463554E-1,2.934567928E0,-1.229773283E0
2.508858724E1,-5.883026123E-2,2.562733650E0,-2.175047398E-1
2.510841463E1,2.873983383E-1,1.539202690E0,7.106088996E-1
2.512831687E1,9.425578117E-1,5.148248672E-1,-6.952416897E-2
2.514821541E1,1.948569536E0,1.540040970E-1,-1.514399052E0
2.516808453E1,2.987395048E0,2.439527512E-1,-1.597136140E0
2.518797046E1,3.377668858E0,2.269325256E-1,-1.001646519E0
2.520788333E1,3.213291883E0,8.583831787E-2,-7.931943536E-1
2.522778750E1,3.137109756E0,1.154489517E-1,-1.519410014E0
2.524767072E1,3.305344582E0,3.757247925E-1,-2.137228727E0
2.526756010E1,3.339056492E0,3.664236069E-1,-2.037758112E0
2.528746125E1,3.051261187E0,5.030174255E-1,-9.482433200E-1
2.530732520E1,2.508119345E0,4.852972031E-1,-6.705737114E-2
2.532722177E1,2.406076193E0,6.595878601E-1,-4.429967403E-1
2.534712687E1,2.534734488E0,7.889900208E-1,-8.967338800E-1
2.536699380E1,2.656229019E0,6.617383957E-1,-5.520194769E-1
2.538688619E1,2.635394096E0,6.076002121E-1,8.840656281E-2
2.540677968E1,2.339315414E0,5.541019440E-1,2.541099787E-1
2.542668119E1,2.047315121E0,4.768848419E-1,-1.852152348E-1
2.544658833E1,1.926164269E0,4.248266220E-1,-5.191171169E-1
2.546648312E1,1.877164841E0,3.277606964E-1,-4.418561459E-1
2.548636375E1,1.902517200E0,3.025102615E-1,-1.323742867E-1
2.550626593E1,1.880537152E0,3.952131271E-1,7.776606083E-2
2.552615135E1,1.752662182E0,6.302738190E-1,-1.411354542E-1
2.554604145E1,1.568288803E0,8.138275146E-1,-3.294132948E-1
2.556592989E1,1.225538015E0,7.694673538E-1,-2.273099422E-1
2.558581447E1,8.101058006E-1,6.432800293E-1,1.680132151E-1
2.560570010E1,6.300477982E-1,5.354232788E-1,3.857811689E-1
2.562559765E1,5.587129593E-1,3.773441315E-1,2.840424776E-1
2.564553083E1,6.151461601E-1,2.353677750E-1,3.068170547E-1
2.566539041E1,5.689837933E-1,2.388343811E-1,4.311769009E-1
2.568527682E1,3.920402527E-1,2.940225601E-1,4.656969309E-1
2.570517583E1,1.796410084E-1,3.338785172E-1,3.855028152E-1
2.572506171E1,9.027719498E-2,3.005790710E-1,3.058257103E-1
2.574492432E1,2.104947567E-1,2.761669159E-1,2.593405247E-1
2.576482505E1,2.794158459E-1,3.641147614E-1,1.576615572E-1
2.578475088E1,1.850419044E-1,4.321613312E-1,3.512597084E-2
2.580461739E1,5.855631828E-2,3.743896484E-1,-2.707231045E-2
2.582450750E1,-8.179092407E-2,1.776781082E-1,6.150293350E-2
2.584437963E1,-8.994245529E-2,5.994510651E-2,2.876433134E-1
2.586430515E1,-1.260709763E-1,-5.592346191E-2,3.622173071E-1
2.588419052E1,-1.677587032E-1,-9.119510651E-2,3.563729525E-1
2.590407947E1,-7.488131523E-2,-1.319532394E-1,2.685171366E-1
2.592394880E1,-2.248978615E-2,-2.687654495E-1,1.483236551E-1
2.594384270E1,-1.238801479E-1,-4.421825409E-1,1.274678707E-1
2.596375864E1,-2.011156082E-1,-4.425487518E-1,1.868133545E-1
2.598363937E1,-7.241582870E-2,-3.200397491E-1,1.284629107E-1
2.600354562E1,-8.506560326E-2,-2.494068146E-1,-4.674899578E-2
2.602344291E1,-2.056140900E-1,-1.637582779E-1,-1.645295620E-1
2.604328796E1,-6.076438427E-1,-2.014074326E-1,-1.763100624E-1
2.606317338E1,-8.225417137E-1,-9.414958954E-2,-9.501099586E-2
2.608310119E1,-7.161493301E-1,-3.282642365E-2,-1.501609087E-1
2.610297744E1,-6.104161739E-1,-7.279872894E-2,-2.798203230E-1
2.612287229E1,-4.830746651E-1,-1.936187744E-1,-4.261595011E-1
2.614276062E1,-2.212369442E-1,-1.276416779E-1,-6.788101792E-1
2.616264911E1,3.461091518E-1,-5.455875397E-2,-9.867615104E-1
2.618259088E1,1.018743277E0,-2.788772583E-1,-1.147889137E0
2.620243093E1,1.646849632E0,-7.688140869E-1,-1.066732526E0
2.622234552E1,2.084688663E0,-1.556692123E0,-7.415257692E-1
2.624221224E1,2.265871286E0,-2.592279434E0,-3.465270996E-2
2.626210734E1,1.956868887E0,-3.567913532E0,9.380044937E-1
2.628199296E1,1.677693129E0,-3.979358196E0,1.844475269E0
2.630189479E1,1.848355055E0,-4.631857872E0,2.436445713E0
2.632179541E1,2.636148214E0,-5.073461533E0,3.026794434E0
2.634168645E1,3.429037571E0,-5.187755585E0,3.878895521E0
2.636163124E1,3.667461634E0,-4.791937351E0,4.870133877E0
2.638153385E1,3.207703352E0,-4.073297501E0,5.879719257E0
2.640136817E1,1.906922340E0,-2.469555616E0,7.009055138E0
2.642126270E1,-9.365768433E-1,1.226620674E-1,8.124405861E0
2.644115656E1,-6.584353447E0,5.187230587E0,9.801076889E0
2.646106526E1,-1.339848328E1,1.296594429E1,9.496938705E0
2.648093072E1,-2.052042007E1,2.365999603E1,5.993211746E0
2.650082567E1,-2.801840973E1,3.490955734E1,7.186243534E-1
2.652070974E1,-2.853231812E1,4.253501892E1,-6.189899921E0
2.654060078E1,-2.126165199E1,3.758503342E1,-2.016749382E1
2.656054786E1,-1.399913979E1,2.582901001E1,-3.674962997E1
2.658044921E1,-5.081952095E0,1.553206062E1,-5.049334335E1
2.660028208E1,4.619334698E0,5.257012367E0,-5.702503967E1
2.662016005E1,8.891583443E0,-7.594902515E0,-5.895393372E1
2.664003786E1,8.949616432E0,-2.378483963E1,-5.347398758E1
2.665993255E1,7.536657333E0,-4.353905106E1,-4.590306473E1
2.667984177E1,1.284852886E1,-5.369974136E1,-3.582681274E1
2.669974093E1,1.596818924E1,-4.519684982E1,-1.970562363E1
2.671961932E1,1.570025539E1,-4.130007935E1,-1.425942135E1
2.673954338E1,1.148951626E1,-4.158321762E1,-8.994913101E0
2.675940260E1,5.780378342E0,-3.827632904E1,-1.586061478E0
2.677929588E1,3.764910221E0,-3.270095825E1,1.381894112E0
2.679919416E1,8.913879395E-1,-2.807242203E1,2.862843513E0
2.681908500E1,-1.531460762E0,-2.478800392E1,4.827968121E0
2.683896833E1,-2.729300499E0,-2.144640350E1,6.119476318E0
2.685886781E1,-2.808361053E0,-1.679341125E1,6.711764336E0
2.687877333E1,-1.572247505E0,-1.152969265E1,6.685977459E0
2.689866374E1,-1.203418732E0,-6.508260727E0,6.056813240E0
2.691855635E1,-2.726834297E0,-1.828235149E0,5.361088753E0
2.693843875E1,-3.442023277E0,1.807410002E0,4.123123646E0
2.695830046E1,-2.841792107E0,3.140072823E0,2.279353380E0
2.697821427E1,-2.455469131E0,3.562788010E0,1.084923506E0
2.699808510E1,-2.265933037E0,3.386731148E0,4.100453854E-1
2.701800562E1,-1.855493546E0,2.600731373E0,-5.619827509E-1
2.703787343E1,-7.297811508E-1,1.807952881E0,-1.602173328E0
2.705778989E1,6.236314774E-1,1.456269741E0,-1.798979521E0
2.707765119E1,1.650726795E0,1.430863857E0,-9.026308060E-1
2.709757281E1,1.856248856E0,7.190828323E-1,-3.388829231E-1
2.711750859E1,1.985771179E0,-2.672615051E-1,-1.034985304E0
2.713732974E1,2.575039625E0,-2.120213509E-1,-1.692019582E0
2.715724015E1,3.407213688E0,3.574275970E-1,-1.667284369E0
2.717711796E1,4.042691231E0,1.057485580E0,-1.162245393E0
2.719702458E1,4.222414970E0,1.120480537E0,-6.237418652E-1
2.721690317E1,3.926610231E0,1.012784004E0,-8.801767826E-1
2.723679609E1,3.598103046E0,9.546947479E-1,-1.012156487E0
2.725670114E1,3.250535965E0,8.327226639E-1,-8.279714584E-1
2.727658468E1,2.728440285E0,9.603796005E-1,-6.660881042E-1
2.729647588E1,2.280059338E0,1.305754662E0,-4.240787029E-1
2.731635302E1,2.159380913E0,1.180052757E0,-4.397149086E-1
2.733623224E1,2.334386110E0,8.712215424E-1,-3.821885586E-1
2.735614718E1,2.457693100E0,8.461475372E-1,5.427002907E-2
2.737600984E1,2.639946461E0,9.120426178E-1,2.064919472E-1
2.739592026E1,2.729935884E0,8.273324966E-1,1.224398613E-1
2.741583213E1,2.749341249E0,6.196327209E-1,3.476953506E-2
2.743569703E1,2.384668827E0,4.281921387E-1,-6.126713753E-2
2.745560197E1,2.193592072E0,4.365081787E-1,-2.294278145E-2
2.747549124E1,1.820535183E0,5.885248184E-1,6.443977356E-3
2.749538062E1,1.502429724E0,6.712913513E-1,3.169298172E-3
2.751528750E1,1.157878160E0,5.921163559E-1,1.275262833E-1
2.753515583E1,9.180243015E-1,5.415973663E-1,2.896797657E-1
2.755504250E1,6.223208904E-1,5.000133514E-1,1.760764122E-1
2.757493036E1,4.849548340E-1,6.203546524E-1,1.532745361E-2
2.759483145E1,5.710988045E-1,6.223745346E-1,1.184868813E-2
2.761471776E1,5.594508648E-1,3.597249985E-1,8.516192436E-2
2.763464619E1,3.166513443E-1,1.663751602E-1,1.308710575E-1
2.765456203E1,-6.699848175E-2,1.571750641E-1,3.292036057E-2
2.767440260E1,-1.871883869E-1,2.470970154E-1,2.593994141E-2
2.769428630E1,-1.173312664E-1,1.586437225E-1,1.595649719E-1
2.771418052E1,1.802039146E-2,-3.453254700E-3,2.693986893E-1
2.773407125E1,3.993415833E-2,-7.406902313E-2,2.221255302E-1
2.775395005E1,-8.633136749E-3,2.738094330E-2,2.072141171E-1
2.777384369E1,-4.890370369E-2,1.323385239E-1,8.593201637E-2
2.779375937E1,-7.894444466E-2,1.775836945E-1,2.718210220E-3
2.781364255E1,-1.765966415E-3,5.823612213E-2,-6.624150276E-2
2.783356109E1,1.819372177E-2,6.409645081E-3,-2.519440651E-2
2.785343666E1,-7.089853287E-3,2.169427872E-1,4.850172997E-2
2.787332260E1,-2.925872803E-3,3.314685822E-1,-6.161689758E-3
2.789320812E1,-5.711078644E-3,2.562370300E-1,1.612186432E-2
2.791307989E1,-1.440775394E-1,7.196140289E-2,1.284010410E-1
2.793299942E1,-2.996561527E-1,-2.705383301E-2,1.761736870E-1
2.795288416E1,-3.585200310E-1,-4.047679901E-2,1.785426140E-1
2.797278322E1,-3.134737015E-1,-1.174068451E-2,2.394797802E-1
2.799268385E1,-2.513427734E-1,-1.225137711E-1,2.317876816E-1
2.801259494E1,-2.551684380E-1,-2.871437073E-1,2.198309898E-1
2.803248364E1,-2.771656513E-1,-2.854328156E-1,2.264602184E-1
2.805233880E1,-2.075440884E-1,-6.149959564E-2,1.114530563E-1
2.807224291E1,-1.326143742E-1,7.827854156E-2,-6.191492081E-2
2.809210447E1,-1.522946358E-1,5.642890930E-2,-1.132497787E-1
2.811200942E1,-3.533594608E-1,-5.958843231E-2,-1.499176025E-3
2.813188682E1,-5.940413475E-1,-5.061626434E-2,2.289557457E-2
2.815178375E1,-6.623044014E-1,1.141157150E-1,-1.097145081E-1
2.817165427E1,-5.756101608E-1,1.702737808E-1,-2.020037174E-1
2.819157614E1,-3.656368256E-1,-5.829048157E-2,-8.904361725E-2
2.821143807E1,-6.084394455E-2,-3.439254761E-1,-5.541372299E-2
2.823135291E1,4.636816978E-1,-3.431062698E-1,-3.686894178E-1
2.825124989E1,1.053385735E0,-6.297111511E-1,-8.992218971E-1
2.827111630E1,1.572525740E0,-1.510204315E0,-1.268047333E0
2.829100421E1,1.771483421E0,-2.506465912E0,-1.300195932E0
2.831091666E1,1.105160952E0,-3.672078609E0,-3.194628954E-1
2.833082177E1,-1.687684059E-1,-4.708608627E0,1.291893005E0
2.835073328E1,-5.772957802E-1,-5.403197289E0,2.133566141E0
2.837063140E1,3.206391335E-1,-6.149233818E0,2.133297443E0
2.839052682E1,1.720795870E0,-7.013526917E0,2.502918243E0
2.841039770E1,2.259084702E0,-8.203770638E0,3.900480032E0
2.843027500E1,2.387975454E0,-8.329730034E0,5.602529049E0
2.845018885E1,2.328087807E0,-7.102504730E0,6.699626923E0
2.847004849E1,8.075385094E-1,-2.949396133E0,7.877429962E0
2.848996187E1,-2.661148071E0,5.268424988E0,8.929816246E0
2.850985645E1,-1.013160038E1,1.594450665E1,8.844325066E0
2.852972432E1,-2.185230637E1,2.622810555E1,6.049510956E0
2.854962807E1,-2.933210182E1,3.661591339E1,-1.511695385E0
2.856953442E1,-2.910397339E1,4.482926178E1,-9.633659363E0
2.858939599E1,-2.513179398E1,4.035734558E1,-2.199481583E1
2.860929588E1,-1.397043991E1,2.806689453E1,-3.767653656E1
2.862920052E1,-2.061214447E0,1.530472565E1,-4.825689316E1
2.864907848E1,6.106810093E0,1.962311983E0,-6.004950714E1
2.866897968E1,1.458455467E1,-1.321502495E1,-6.985474396E1
2.868884724E1,1.289238071E1,-2.697715759E1,-6.448810577E1
2.870876364E1,8.924964905E0,-4.207321548E1,-5.752238464E1
2.872868302E1,1.129510117E1,-4.784614563E1,-4.575792313E1
2.874856734E1,1.415256023E1,-4.575286102E1,-3.054273224E1
2.876843755E1,1.436270714E1,-4.289743042E1,-2.251771355E1
2.878834020E1,1.524255943E1,-4.409199142E1,-1.692173004E1
2.880822666E1,1.565161514E1,-4.150595093E1,-1.096743202E1
2.882811598E1,1.758298683E1,-3.484741974E1,-6.216637135E0
2.884798828E1,1.429443359E1,-2.842885971E1,-2.039719582E0
2.886789114E1,8.118037224E0,-2.334283447E1,1.057873249E0
2.888777843E1,4.012492180E0,-1.677546692E1,2.388282776E0
2.890764661E1,1.212921619E0,-1.038787651E1,2.792212486E0
2.892756125E1,-2.081341743E0,-7.150895119E0,3.357819080E0
2.894745026E1,-4.910821915E0,-4.374527931E0,3.838996410E0
2.896734927E1,-7.405975342E0,1.629834890E0,3.381045103E0
2.898723489E1,-8.394492149E0,5.157179832E0,1.889122009E0
2.900713802E1,-7.757024765E0,4.792395592E0,4.871523380E-1
2.902702604E1,-6.427436829E0,5.090338230E0,3.269977570E-1
2.904688833E1,-4.646320343E0,5.319582462E0,2.931840420E-1
2.906677765E1,-2.611515045E0,4.359911919E0,-6.791075468E-1
2.908669479E1,-6.367306709E-1,3.173647881E0,-1.738453627E0
2.910660036E1,5.591335297E-1,2.935833931E0,-9.938002825E-1
2.912649578E1,7.699275017E-1,3.306184292E0,9.019104242E-1
2.914635520E1,9.678168297E-1,2.648800850E0,1.889209270E0
2.916626052E1,1.076572895E0,1.516260147E0,1.759335279E0
2.918614364E1,1.604208469E0,1.026350021E0,1.255408883E0
2.920602817E1,2.400799036E0,9.711894989E-1,8.901087046E-1
2.922591724E1,3.221993446E0,1.350032806E0,8.503166437E-1
2.924582083E1,3.907280445E0,1.885313034E0,7.108284235E-1
2.926569489E1,3.693104744E0,1.663640976E0,5.416265130E-1
2.928561755E1,3.431160450E0,8.239545822E-1,-2.616974115E-1
2.930547703E1,3.672490120E0,1.974840164E-1,-1.122335076E0
2.932539416E1,3.687544107E0,-2.190065384E-1,-1.345357060E0
2.934527604E1,3.395611048E0,-1.283922195E-1,-9.099415541E-1
2.936517145E1,2.989833593E0,-7.915973663E-2,-2.607377768E-1
2.938505494E1,2.658863068E0,-2.650489807E-1,1.250824928E-1
2.940494312E1,2.354441404E0,-3.336429596E-1,1.781772375E-1
2.942483474E1,2.013292313E0,-2.399559021E-1,1.808028221E-1
2.944472619E1,1.813586712E0,4.603481293E-2,1.780430079E-1
2.946464458E1,1.704101086E0,9.014129639E-2,1.372879744E-1
2.948452343E1,1.602856159E0,9.953689575E-2,2.222368717E-1
2.950438963E1,1.340393066E0,3.153829575E-1,2.755591869E-1
2.952430609E1,1.076843023E0,5.479364395E-1,1.754804850E-1
2.954420416E1,9.564256668E-1,5.483894348E-1,1.493722200E-1
2.956405880E1,9.233636856E-1,4.291925430E-1,2.441407442E-1
2.958397395E1,7.518107891E-1,6.155214310E-1,3.425291777E-1
2.960384296E1,6.370053291E-1,8.969306946E-1,2.398276329E-1
2.962375000E1,5.671207905E-1,9.425582886E-1,1.426275969E-1
2.964364968E1,5.672075748E-1,8.058242798E-1,2.606825829E-1
2.966354593E1,3.984820843E-1,5.666780472E-1,5.286976099E-1
2.968343010E1,1.006641388E-1,3.440189362E-1,7.101635933E-1
2.970331062E1,1.232223511E-1,5.494575500E-1,6.597217321E-1
2.972319682E1,2.830584049E-1,6.139736176E-1,4.827028513E-1
2.974310401E1,2.107818127E-1,4.198417664E-1,5.122959614E-1
2.976297234E1,-4.560375214E-2,2.068891525E-1,6.100295782E-1
2.978286099E1,2.179145813E-4,-4.691123962E-3,3.226605654E-1
2.980276546E1,1.191835403E-1,1.216554642E-1,-1.075779200E-1
2.982271124E1,1.433429718E-1,2.309207916E-1,-1.960737109E-1
2.984261296E1,9.687662125E-3,1.576061249E-1,3.815782070E-2
2.986245578E1,-7.608747482E-2,-1.209115982E-1,3.421390057E-2
2.988235005E1,-1.239523888E-1,-2.394189835E-1,-1.315340996E-1
2.990225468E1,-4.733061790E-2,3.549480438E-2,-2.346963882E-1
2.992213072E1,2.194905281E-2,8.251857758E-2,-1.897131801E-1
2.994199901E1,-4.379153252E-2,-1.895723343E-1,1.828072071E-1
2.996192218E1,-8.242678642E-2,-4.783582687E-1,3.843989372E-1
2.998181135E1,-7.696723938E-2,-4.235134125E-1,3.077504635E-1
3.000169489E1,-3.959035873E-2,-1.155672073E-1,2.101531029E-1
3.002156859E1,-1.393251419E-1,7.563304901E-2,1.992130280E-1
3.004153031E1,-2.708158493E-1,-9.355545044E-4,3.029547930E-1
3.006135562E1,-2.901558876E-1,-1.601629257E-1,2.704612017E-1
3.008124536E1,-3.130097389E-1,-7.705974579E-2,4.037582874E-2
3.010114854E1,-4.329710007E-1,1.954898834E-1,-1.505663395E-1
3.012103442E1,-3.429903984E-1,2.241125107E-1,-1.193967462E-1
3.014090869E1,7.355451584E-2,-1.189136505E-1,3.372251987E-2
3.016081474E1,9.576971531E-1,-3.848867416E-1,1.237385273E-1
3.018070791E1,2.086630106E0,-5.637798309E-1,-9.610110521E-2
3.020059557E1,2.783364773E0,-1.015583038E0,-4.464832544E-1
3.022046630E1,2.912486315E0,-1.614148617E0,-6.074143648E-1
3.024035343E1,2.262053251E0,-2.245448112E0,-5.205668211E-1
3.026030312E1,1.114897013E0,-3.012350082E0,3.572499752E-2
3.028015052E1,2.340507507E-2,-4.025480270E0,7.857260704E-1
3.030005791E1,-2.164645195E-1,-4.863379002E0,1.735024929E0
3.031992515E1,3.726391792E-1,-5.118404865E0,2.619640827E0
3.033984437E1,8.564195633E-1,-5.363316536E0,3.583735466E0
3.035974093E1,7.949767113E-1,-5.615891457E0,4.673730373E0
3.037961807E1,1.054684162E0,-5.040698528E0,5.448332310E0
3.039953463E1,1.109428406E0,-3.736285210E0,5.687198162E0
3.041942276E1,6.741838455E-1,-1.798506260E0,5.421688080E0
3.043928359E1,-1.695666313E-1,1.145488739E0,4.477976322E0
3.045920062E1,-1.577210426E0,5.150545120E0,2.442141056E0
3.047907828E1,-4.208093643E0,1.116054344E1,2.631542683E-1
3.049895807E1,-8.196938515E0,1.858162308E1,-2.661132336E0
3.051887432E1,-1.418927002E1,2.672928238E1,-5.719508171E0
3.053875312E1,-1.920230865E1,3.267098236E1,-8.910205841E0
3.055868380E1,-2.392286301E1,3.535773087E1,-1.645157242E1
3.057859203E1,-2.022299576E1,3.378352356E1,-2.686785507E1
3.059844682E1,-9.443705559E0,2.655818939E1,-3.671717834E1
3.061833255E1,5.659961700E-1,1.484432983E1,-4.714292145E1
3.063820724E1,7.091642380E0,1.223054051E0,-5.542875671E1
3.065810666E1,8.446507454E0,-1.244516182E1,-5.696830368E1
3.067798838E1,8.618173599E0,-2.653603363E1,-5.649583435E1
3.069786718E1,1.333667850E1,-5.280562592E1,-5.942422104E1
3.071777781E1,1.925957870E1,-5.416453934E1,-4.001761246E1
3.073766817E1,1.915912247E1,-3.591539001E1,-2.408070946E1
3.075755546E1,1.895762253E1,-4.159357452E1,-2.172832870E1
3.077746124E1,1.658871841E1,-4.007412720E1,-1.137815189E1
3.079738244E1,1.441510487E1,-3.439179993E1,-4.759821892E0
3.081724296E1,1.104696846E1,-3.094782066E1,-1.526782513E0
3.083713161E1,5.714973927E0,-2.677467918E1,1.106846809E0
3.085701203E1,1.436181068E0,-2.443445015E1,2.318320036E0
3.087688500E1,-1.952457428E-1,-2.110488319E1,3.957083941E0
3.089678687E1,-8.919515610E-1,-1.518204403E1,5.628830910E0
3.091668093E1,-1.953285217E0,-9.806707382E0,5.610260010E0
3.093659843E1,-2.055593491E0,-5.072890759E0,4.670574188E0
3.095649359E1,-2.821704865E0,4.877785444E-1,3.203137636E0
3.097636374E1,-6.239373207E0,4.598763466E0,2.422714472E0
3.099625052E1,-9.087821007E0,5.215166569E0,2.230082989E0
3.101614520E1,-8.139860153E0,4.555893898E0,1.637767911E0
3.103603088E1,-4.602511406E0,4.310551167E0,1.580746174E-1
3.105590640E1,-2.081044197E0,3.610902786E0,-1.183223724E0
3.107581260E1,-1.102599144E0,2.746454239E0,-1.369964600E0
3.109569015E1,-3.759346008E-1,2.056481361E0,-5.808283091E-1
3.111560885E1,7.225561142E-2,1.145681858E0,-4.298115969E-1
3.113554927E1,6.884956360E-1,3.789119720E-1,-1.464689493E0
3.115539958E1,1.802702427E0,4.127025604E-3,-1.845875263E0
3.117529145E1,2.955445290E0,-2.522087097E-1,-1.924083114E0
3.119515953E1,3.462255478E0,-5.682201385E-1,-2.218718767E0
3.121506968E1,3.149854660E0,-2.542161942E-1,-2.043582439E0
3.123494718E1,3.172937870E0,2.467346191E-2,-1.992521644E0
3.125483927E1,3.594992638E0,2.759552002E-2,-2.507591486E0
3.127472567E1,3.408081055E0,2.506828308E-1,-2.237089157E0
3.129463645E1,3.295284271E0,6.927108765E-1,-1.100816131E0
3.131456468E1,3.254696131E0,8.306427002E-1,-5.642539263E-1
3.133441776E1,3.194713116E0,6.957292557E-1,-5.039489269E-1
3.135428974E1,3.377435684E0,8.986482620E-1,-3.955209255E-1
3.137420635E1,3.039259195E0,1.020133972E0,-1.917505264E-1
3.139407526E1,2.476539612E0,1.096064568E0,1.895065308E-1
3.141397765E1,2.105625868E0,8.537759781E-1,4.287147522E-1
3.143387947E1,1.946189642E0,6.810579300E-1,4.639711380E-1
3.145376067E1,2.008208275E0,6.722288132E-1,3.274118900E-1
3.147366072E1,1.955300212E0,8.273677826E-1,2.354164124E-1
3.149353989E1,1.995687008E0,7.328310013E-1,7.171535492E-2
3.151344437E1,1.877857447E0,4.574832916E-1,3.658699989E-2
3.153333624E1,1.655765176E0,5.136671066E-1,-4.108500481E-2
3.155321812E1,1.441033006E0,7.331237793E-1,-2.151331902E-1
3.157310474E1,1.116237164E0,6.948175430E-1,-3.699622154E-1
3.159299755E1,8.380589485E-1,4.460840225E-1,-3.456728458E-1
3.161287880E1,7.588262558E-1,2.845287323E-1,-2.253654003E-1
3.163278265E1,8.642718792E-1,2.777032852E-1,-2.542357445E-1
3.165267364E1,8.801882267E-1,3.946037292E-1,-3.236248493E-1
3.167262229E1,6.832532883E-1,4.662008286E-1,-3.025805950E-1
3.169245203E1,5.461826324E-1,2.959318161E-1,-1.531851292E-1
3.171233307E1,3.057737350E-1,4.051685333E-2,3.406167030E-2
3.173224583E1,9.122753143E-2,-5.906963348E-2,1.562440395E-1
3.175213864E1,-4.304695129E-2,-2.731800079E-2,3.266854286E-1
3.177202750E1,-1.794407368E-1,-5.279541016E-2,5.479173660E-1
3.179192187E1,-2.620785236E-1,-1.380329132E-1,7.884311676E-1
3.181178145E1,-2.238452435E-1,-3.143959045E-1,8.026380539E-1
3.183169296E1,-1.238334179E-1,-2.292470932E-1,7.033236027E-1
3.185159781E1,8.788609505E-2,-3.929901123E-2,5.829594135E-1
3.187154562E1,4.637789726E-2,-2.870559692E-4,4.715404510E-1
3.189136458E1,-1.282835007E-1,1.234579086E-1,4.799888134E-1
3.191125057E1,-2.029588223E-1,2.419137955E-1,3.145947456E-1
3.193113619E1,-1.477293968E-1,3.908958435E-1,5.842351913E-2
3.195104255E1,-1.439881325E-1,4.016923904E-1,-1.293172836E-1
3.197091026E1,-2.917282581E-1,2.733144760E-1,-1.470685005E-1
3.199081880E1,-5.520086288E-1,1.276931763E-1,-1.054205894E-1
3.201074239E1,-5.833618641E-1,-1.314678192E-1,9.899377823E-3
3.203061833E1,-4.452328682E-1,-5.203714371E-1,5.667591095E-2
3.205058812E1,-4.658367634E-1,-7.165679932E-1,2.425432205E-2
3.207040307E1,-6.850676537E-1,-7.642145157E-1,8.213877678E-2
3.209025317E1,-9.131159782E-1,-9.005818367E-1,2.553939819E-2
3.211017635E1,-1.044808149E0,-8.120360374E-1,-3.359622955E-1
3.213003651E1,-7.584762573E-1,-3.396244049E-1,-7.890366316E-1
3.214993713E1,-7.493019104E-2,-9.689331055E-2,-1.243012309E0
3.216981984E1,5.991575718E-1,-3.999481201E-1,-1.235170364E0
3.218972192E1,1.063963890E0,-7.146821022E-1,-6.603134871E-1
3.220961734E1,1.208152294E0,-9.017758369E-1,-1.042754650E-1
3.222951166E1,8.266379833E-1,-1.207469940E0,3.851935863E-1
3.224941895E1,3.884975910E-1,-1.565496445E0,7.748987675E-1
3.226928505E1,4.323599339E-1,-1.834697247E0,1.319561958E0
3.228918250E1,7.623562813E-1,-2.211500645E0,1.873197317E0
3.230908281E1,1.056588888E0,-3.356504917E0,2.463042259E0
3.232894546E1,1.542504787E0,-4.532752037E0,2.930763721E0
3.234887474E1,2.174054623E0,-4.949581146E0,3.299390078E0
3.236875479E1,2.441899061E0,-4.594182014E0,4.196316719E0
3.238866239E1,2.105519772E0,-3.594702005E0,5.545412064E0
3.240860302E1,1.653107643E0,-1.597014427E0,6.428287029E0
3.242841583E1,1.830545902E0,1.581796169E0,6.219329834E0
3.244830791E1,7.278704643E-1,6.557413578E0,6.043883324E0
3.246823416E1,-2.021264076E0,1.436251640E1,6.606587410E0
3.248811447E1,-5.186647415E0,2.372699165E1,7.810428143E0
3.250800718E1,-8.855689049E0,3.214159393E1,7.259430408E0
3.252790015E1,-1.273246479E1,3.710684204E1,-5.427964926E-1
3.254777781E1,-1.373937798E1,3.539579010E1,-1.380720425E1
3.256766822E1,-1.126163864E1,2.976886940E1,-2.420362473E1
3.258758489E1,-8.664322853E0,2.109830856E1,-3.641653061E1
3.260748729E1,-5.483696938E0,1.133841705E1,-4.943271255E1
3.262733671E1,-1.365674973E0,1.586656690E0,-5.708423615E1
3.264725567E1,2.228217602E0,-1.043872547E1,-5.844272995E1
3.266713598E1,5.358203411E0,-2.191670036E1,-5.519575500E1
3.268701578E1,8.818117142E0,-3.342030716E1,-5.128498077E1
3.270692937E1,1.548220825E1,-4.328671265E1,-4.486172104E1
3.272681187E1,1.801409912E1,-4.216045761E1,-3.001151657E1
3.274669119E1,1.488036156E1,-4.059186172E1,-1.964767075E1
3.276657406E1,1.188645649E1,-4.370762253E1,-1.302579498E1
3.278646182E1,8.993079185E0,-4.022259903E1,-6.416539192E0
3.280638750E1,8.619205475E0,-3.345652771E1,-3.051351547E0
3.282624703E1,7.592895508E0,-2.889733315E1,-7.157318592E-1
3.284615734E1,3.277996540E0,-2.524582291E1,1.999535561E0
3.286604333E1,9.374618530E-4,-1.999028015E1,3.429694653E0
3.288591437E1,-1.189810753E0,-1.430914879E1,4.079854012E0
3.290583260E1,-3.055441856E0,-9.412800789E0,5.155019760E0
3.292569796E1,-4.872772217E0,-5.272811890E0,5.484264374E0
3.294559869E1,-5.496837616E0,-8.673763275E-2,4.802009583E0
3.296552510E1,-5.554800034E0,3.160866499E0,2.716918945E0
3.298539140E1,-6.211225510E0,4.311626434E0,1.380002260E0
3.300529604E1,-5.630102158E0,5.194673061E0,1.666065454E0
3.302517703E1,-3.276669502E0,5.078092098E0,1.818674684E0
3.304506359E1,-8.232750893E-1,3.928635120E0,3.108694553E-1
3.306496083E1,8.556385040E-1,3.052855015E0,-1.193330884E0
3.308485375E1,1.836362839E0,2.940841675E0,-6.088669300E-1
3.310473057E1,2.013905525E0,2.438971519E0,9.525841475E-1
3.312465812E1,1.737346649E0,1.263009071E0,1.365696788E0
3.314455171E1,2.305083513E0,8.417329788E-1,2.539200783E-1
3.316444770E1,3.175652027E0,1.324348450E0,-9.790323973E-1
3.318428062E1,3.664306164E0,1.680392265E0,-1.263818622E0
3.320419843E1,4.143656731E0,1.816709518E0,-9.207999706E-1
3.322409599E1,4.289032459E0,1.971086502E0,-7.548148632E-1
3.324396348E1,4.376691341E0,1.590901375E0,-1.344591975E0
3.326388432E1,4.071910381E0,6.609516144E-1,-1.826187849E0
3.328376802E1,3.622840881E0,-1.292018890E-1,-1.533500433E0
3.330364474E1,3.309481859E0,-3.075122833E-1,-7.010433674E-1
3.332356838E1,2.694464207E0,1.142873764E-1,-7.993221283E-3
3.334341755E1,2.158100367E0,2.425870895E-1,7.827949524E-2
3.336330442E1,1.859397650E0,3.819751740E-2,-6.166863441E-2
3.338322875E1,1.697947264E0,1.219234467E-1,1.528294086E-1
3.340312083E1,1.401798964E0,1.774139404E-1,5.845942497E-1
3.342299224E1,8.889656067E-1,2.840929031E-1,8.096692562E-1
3.344289614E1,6.902155876E-1,4.741182327E-1,6.509907246E-1
3.346279177E1,7.859075069E-1,2.245330811E-1,4.250423908E-1
3.348271489E1,5.842370987E-1,-1.892957687E-1,5.135180950E-1
3.350259395E1,3.508062363E-1,-4.527378082E-1,7.867834568E-1
3.352244375E1,2.028942108E-1,-4.332551956E-1,7.945420742E-1
3.354232567E1,-2.502036095E-2,-4.246625900E-1,4.444894791E-1
3.356226177E1,-3.114700317E-1,-3.531589508E-1,3.905720711E-1
3.358215239E1,-5.820152760E-1,-3.338727951E-1,6.365704536E-1
3.360201713E1,-3.969793320E-1,1.619148254E-1,7.673246861E-1
3.362195937E1,1.812696457E-2,5.920238495E-1,5.840835571E-1
3.364179083E1,3.662567139E-1,4.417924881E-1,5.825777054E-1
3.366168463E1,3.921673298E-1,2.173480988E-1,8.434474468E-1
3.368157093E1,3.934416771E-1,2.431488037E-1,1.032431841E0
3.370153640E1,2.726099491E-1,-8.593559265E-3,7.758779526E-1
3.372136088E1,3.551306725E-1,-1.532888412E-1,6.308639050E-1
3.374126703E1,3.359699249E-1,2.671356201E-1,7.978457212E-1
3.376120296E1,5.980167389E-1,7.568950653E-1,5.752625465E-1
3.378104874E1,9.774899483E-1,1.051693916E0,2.376025915E-1
3.380094724E1,1.158893228E0,1.281715393E0,1.206631660E-1
3.382081046E1,1.039793372E0,1.354003906E0,-1.409916878E-1
3.384073708E1,6.168515682E-1,9.793586731E-1,-3.486790657E-1
3.386070567E1,2.358746529E-1,4.797887802E-1,-3.087133169E-1
3.388061375E1,1.275899410E-1,7.370853424E-2,-4.819223881E-1
3.390037135E1,1.491653919E-1,-3.328628540E-1,-7.426856756E-1
3.392028427E1,-2.430913448E-1,-7.202482224E-1,-7.231225967E-1
3.394018364E1,-6.001968384E-1,-7.730674744E-1,-3.888852596E-1
3.396005604E1,-4.704809189E-1,-6.139392853E-1,-2.475672960E-1
3.397995145E1,-1.135621071E-1,-4.508295059E-1,-2.012898922E-1
3.399985156E1,3.765749931E-2,-4.728326797E-1,4.461598396E-2
3.401974781E1,-8.184742928E-2,-5.366582870E-1,3.715994358E-1
3.403962885E1,-6.037688255E-2,-3.588504791E-1,7.117710114E-1
3.405951015E1,6.397104263E-2,-5.498313904E-2,7.169256210E-1
3.407942656E1,1.810019016E-1,2.812261581E-1,5.033493042E-1
3.409928651E1,2.536795139E-1,2.822589874E-1,3.693943024E-1
3.411923171E1,2.981164455E-1,-1.673793793E-1,3.098442554E-1
3.413908682E1,3.972632885E-1,-4.194536209E-1,2.962822914E-1
3.415898635E1,5.185649395E-1,-3.918266296E-1,2.396099567E-1
3.417886062E1,6.258409023E-1,-1.296921253E0,1.799380779E-1
3.419874145E1,1.043305397E0,-2.385672092E0,2.546585798E-1
3.421865052E1,1.462203741E0,-3.691126823E0,7.682225704E-1
3.423858041E1,1.433257818E0,-5.212231159E0,1.939345360E0
3.425842255E1,8.017175198E-1,-6.450861931E0,3.174683094E0
3.427832213E1,2.714753151E-1,-7.360233784E0,3.383131981E0
3.429820145E1,5.679807663E-1,-7.589285851E0,3.795047283E0
3.431808526E1,1.256647110E-1,-7.667217731E0,6.117926598E0
3.433797916E1,-1.372113228E0,-7.295936108E0,8.641693115E0
3.435790734E1,-1.302495956E0,-6.391331673E0,9.022523880E0
3.437776776E1,-5.836386681E-1,-4.248876095E0,8.153256416E0
3.439767906E1,-1.474514008E-1,9.837074280E-1,6.017139912E0
3.441756083E1,-3.369081497E0,9.346841812E0,1.884935856E0
3.443744427E1,-1.304546452E1,2.272588921E1,-3.515451670E0
3.445734265E1,-2.385467148E1,3.960641098E1,-9.555968285E0
3.447724791E1,-2.800902557E1,4.589328003E1,-1.764494514E1
3.449712474E1,-3.132667542E1,3.798676300E1,-2.683940887E1
3.451702015E1,-2.884289551E1,2.525535011E1,-3.334939957E1
3.453693213E1,-1.736218071E1,1.001079941E1,-4.063302231E1
3.455679114E1,-9.494833946E0,-3.182994843E0,-4.866317749E1
3.457669786E1,-1.042843246E1,-1.046982574E1,-5.209388733E1
3.459659807E1,-9.851532936E0,-2.085816574E1,-5.376830673E1
3.461649171E1,-5.897362709E0,-3.548647308E1,-5.227955627E1
3.463637760E1,2.956040382E0,-5.192957687E1,-4.870495224E1
3.465626541E1,1.232482624E1,-5.024507904E1,-3.306586456E1
3.467616437E1,1.351395035E1,-4.352806473E1,-2.218988037E1
3.469605593E1,1.023602295E1,-4.423799133E1,-1.446959496E1
3.471594781E1,7.750998020E0,-4.186781693E1,-7.220690727E0
3.473580317E1,4.910557747E0,-3.611046219E1,-3.695987940E0
3.475571130E1,1.062410355E0,-3.027073097E1,-9.322614670E-1
3.477559588E1,-1.893786430E0,-2.498439026E1,8.324131966E-1
3.479553078E1,-3.711616516E0,-2.061727333E1,2.746316433E0
3.481538635E1,-4.896769524E0,-1.718422699E1,5.016504288E0
3.483526645E1,-5.217889786E0,-1.264772987E1,6.305218697E0
3.485520343E1,-4.387108803E0,-7.515381813E0,6.207601547E0
3.487507864E1,-3.782123566E0,-2.308089256E0,5.542478561E0
3.489497416E1,-4.213540554E0,1.267736912E0,5.688184738E0
3.491482328E1,-4.725308418E0,2.665799618E0,5.537026405E0
3.493476338E1,-2.700167179E0,3.080195427E0,3.358246326E0
3.495467192E1,3.307919502E-1,2.568079948E0,3.580839634E-1
3.497457255E1,2.203145981E0,2.522823811E0,-8.475253582E-1
3.499442598E1,2.269523144E0,2.460217476E0,-2.902507782E-1
3.501431374E1,1.962871194E0,2.111083984E0,2.727055550E-2
3.503423338E1,2.148588181E0,1.441058159E0,-5.989131927E-1
3.505410651E1,2.420708895E0,1.040851593E0,-1.534839869E0
3.507397869E1,2.526597023E0,1.014422417E0,-1.506386399E0
3.509386197E1,2.252635479E0,8.182039261E-1,-1.050269008E0
3.511376974E1,2.321885347E0,5.327711105E-1,-8.093876839E-1
3.513367343E1,2.849945545E0,4.270992279E-1,-9.162613153E-1
3.515354744E1,3.294976473E0,1.623287201E-1,-9.351012707E-1
3.517345166E1,3.335635185E0,3.268718719E-2,-7.849304676E-1
3.519333317E1,2.911656857E0,3.133125305E-1,-7.283143997E-1
3.521323437E1,2.515999794E0,5.395555496E-1,-4.088234901E-1
3.523309901E1,2.201923370E0,4.122915268E-1,8.366870880E-2
3.525299895E1,2.112214804E0,4.047937393E-1,1.975343227E-1
3.527288130E1,2.549541712E0,5.579395294E-1,-7.909893990E-2
3.529278552E1,2.593155622E0,8.095922470E-1,-4.197127819E-1
3.531268572E1,2.667992115E0,1.058619499E0,-3.873479366E-1
3.533262348E1,2.508123875E0,7.314500809E-1,3.806352615E-2
3.535246171E1,2.295221806E0,3.478641510E-1,4.244804382E-2
3.537233994E1,2.017578840E0,5.723972321E-1,-2.043783665E-1
3.539222838E1,1.906853676E0,1.012423515E0,-1.320433617E-1
3.541213916E1,2.036025763E0,1.035088539E0,8.749628067E-2
3.543200421E1,2.064895630E0,8.018846512E-1,5.329127312E-1
3.545190062E1,1.638287067E0,4.578571320E-1,5.639402866E-1
3.547182208E1,1.146769166E0,4.097318649E-1,2.928564548E-1
3.549169692E1,8.841480017E-1,3.332386017E-1,9.227347374E-2
3.551158734E1,6.226466894E-1,1.295242310E-1,1.570866108E-1
3.553156598E1,2.688562870E-1,-3.621101379E-3,3.469226360E-1
3.555135484E1,1.012229919E-2,-8.602333069E-2,3.696024418E-1
3.557127276E1,-2.370457649E-1,-9.870624542E-2,1.949806213E-1
3.559116317E1,-5.133125782E-1,4.242801666E-2,1.796495914E-2
3.561103724E1,-5.867714882E-1,2.411384583E-1,1.335575581E-1
3.563095354E1,-3.591957092E-1,4.056043625E-1,2.439463139E-1
3.565083765E1,-2.535345554E-1,4.770698547E-1,1.544198990E-1
3.567072979E1,-2.191855907E-1,4.480543137E-1,1.181507111E-1
3.569064046E1,-2.528476715E-1,3.671865463E-1,1.520948410E-1
3.571054989E1,-1.297831535E-1,4.094161987E-1,2.720912695E-1
3.573038729E1,1.318342686E-1,5.094747543E-1,3.618521690E-1
3.575030020E1,2.841875553E-1,3.417739868E-1,4.180815220E-1
3.577019302E1,2.757170200E-1,1.273431778E-1,5.283715725E-1
3.579006140E1,7.488012314E-2,-1.210088730E-1,5.478272438E-1
3.580997520E1,-2.558705807E-1,-2.848386765E-1,4.818966389E-1
3.582986067E1,-3.532729149E-1,-2.887487411E-1,3.546864986E-1
3.584975974E1,-2.517187595E-1,-2.409830093E-1,2.041134834E-1
3.586962062E1,-2.922291756E-1,-1.952190399E-1,1.953666210E-1
3.588955557E1,-3.721845150E-1,-2.765884399E-1,2.481646538E-1
3.590943270E1,-4.904856682E-1,-5.117092133E-1,2.544670105E-1
3.592932614E1,-5.587818623E-1,-5.427408218E-1,3.276884556E-1
3.594919401E1,-5.923802853E-1,-3.671245575E-1,3.380417824E-1
3.596910406E1,-5.500588417E-1,-2.585477829E-1,2.285656929E-1
3.598897083E1,-5.422363281E-1,-3.307781219E-1,2.180225849E-1
3.600887947E1,-9.014754295E-1,-3.683834076E-1,2.895846367E-1
3.602877124E1,-1.223541737E0,-9.413433075E-2,2.494473457E-1
3.604867489E1,-1.121401072E0,2.087097168E-1,1.078407764E-1
3.606856677E1,-9.325592518E-1,2.758932114E-1,2.131795883E-2
3.608842979E1,-8.787276745E-1,2.009458542E-1,-3.229236603E-2
3.610831697E1,-7.251725197E-1,1.188001633E-1,-4.916286469E-2
3.612825031E1,-5.671951771E-1,-2.128725052E-1,-2.020766735E-1
3.614809776E1,-4.140026569E-1,-7.002573013E-1,-4.605662823E-1
3.616799244E1,6.800532341E-2,-1.241035461E0,-7.046948671E-1
3.618787406E1,8.874673843E-1,-1.853957653E0,-8.987224102E-1
3.620778374E1,1.454490542E0,-2.718909740E0,-9.798035622E-1
3.622768817E1,1.258392334E0,-4.002546310E0,-5.806474686E-1
3.624757656E1,5.726313591E-2,-5.514044762E0,4.493303299E-1
3.626743744E1,-9.030768871E-1,-7.258187771E0,1.407235861E0
3.628735552E1,-1.238549709E0,-8.602809906E0,2.350308180E0
3.630724520E1,-1.202708721E0,-9.349882126E0,2.858029366E0
3.632714270E1,-9.431743622E-2,-8.431531906E0,3.083879471E0
3.634702598E1,2.606363297E0,-6.106313705E0,3.024612188E0
3.636692052E1,5.159439087E0,-3.125951290E0,2.934633017E0
3.638681062E1,4.887035370E0,2.145071030E-1,3.306352377E0
3.640672130E1,3.436450958E-1,3.782911301E0,3.909415245E0
3.642658848E1,-5.851834297E0,7.847846508E0,3.558178902E0
3.644647833E1,-1.116876888E1,1.347735977E1,7.963263988E-1
3.646638354E1,-1.508426094E1,2.072446442E1,-4.614090919E0
3.648626151E1,-2.079362488E1,2.908199120E1,-1.037196064E1
3.650617197E1,-2.677749252E1,3.745300674E1,-1.494159317E1
3.652606583E1,-2.714402771E1,3.963732529E1,-2.023059464E1
3.654592984E1,-2.078934479E1,3.290996552E1,-2.982544327E1
3.656581437E1,-9.982339859E0,2.170407295E1,-4.221142960E1
3.658573541E1,7.074155807E-1,1.225884724E1,-4.880049515E1
3.660560104E1,8.378480911E0,-9.095941782E-1,-5.869499207E1
3.662553729E1,1.057728577E1,-1.629862595E1,-6.691742706E1
3.664538432E1,7.881720066E0,-3.309519577E1,-6.590574646E1
3.666530604E1,1.152343655E1,-4.996829224E1,-5.937168503E1
3.668519468E1,1.656723595E1,-4.844909668E1,-4.124304199E1
3.670508729E1,1.445718956E1,-4.231723785E1,-2.661136055E1
3.672496947E1,1.280444908E1,-4.097311783E1,-1.916094398E1
3.674484145E1,9.084307671E0,-3.713427353E1,-1.118122482E1
3.676474651E1,6.123600960E0,-3.224888992E1,-5.462563038E0
3.678466343E1,4.486391068E0,-2.801113129E1,-3.115208387E0
3.680455578E1,1.815958977E0,-2.324085617E1,-8.800082207E-1
3.682441885E1,-1.568356514E0,-1.780232430E1,1.574935436E0
3.684430796E1,-4.078253746E0,-1.340614986E1,3.076363087E0
3.686422375E1,-5.230195999E0,-1.055445099E1,3.306374073E0
3.688411307E1,-5.186645508E0,-7.378198624E0,3.741512775E0
3.690397119E1,-4.975869179E0,-4.152284145E0,3.910812855E0
3.692388125E1,-5.113902092E0,-1.374750376E0,3.393934965E0
3.694376401E1,-5.431609154E0,1.000636578E0,2.020154953E0
3.696364838E1,-6.027627945E0,2.712489605E0,9.921293259E-1
3.698356708E1,-4.983275414E0,3.056932449E0,1.072502136E-2
3.700341828E1,-2.472892284E0,2.488938808E0,-1.211831331E0
3.702334041E1,-4.823994637E-1,2.344678402E0,-2.132715464E0
3.704322182E1,5.853028297E-1,2.350690842E0,-1.990244150E0
3.706313270E1,7.423505783E-1,2.124147892E0,-1.341853023E0
3.708302052E1,7.435379028E-1,1.882445812E0,-1.041963696E0
3.710289515E1,8.329701424E-1,1.343014717E0,-1.420884967E0
3.712281260E1,1.679257393E0,9.022617340E-1,-2.119804144E0
3.714272453E1,2.917552471E0,5.483961105E-1,-2.339298725E0
3.716260916E1,3.091803312E0,7.515583038E-1,-1.929082990E0
3.718250489E1,2.937963963E0,9.850082397E-1,-1.376497746E0
3.720234932E1,2.956188679E0,1.063364029E0,-1.436639428E0
3.722225250E1,3.125051022E0,7.062520981E-1,-1.970949292E0
3.724215500E1,3.204810143E0,5.060672760E-1,-1.989109993E0
3.726205197E1,2.968022823E0,3.961372375E-1,-1.321854472E0
3.728193708E1,2.778380871E0,5.739307404E-1,-8.120560646E-1
3.730181364E1,2.841823816E0,5.924177170E-1,-7.273170948E-1
3.732169328E1,2.910851955E0,3.134536743E-1,-6.053123474E-1
3.734160718E1,2.763367414E0,3.549680710E-1,-4.450273514E-1
3.736158349E1,2.640692472E0,7.897005081E-1,-3.187234402E-1
3.738136536E1,2.602314472E0,1.119174957E0,-1.747581959E-1
3.740128224E1,2.603431463E0,1.069063187E0,1.324529648E-1
3.742116885E1,2.326700687E0,6.686563492E-1,3.043451309E-1
3.744105953E1,1.809759736E0,6.474657059E-1,2.900960445E-1
3.746095885E1,1.450732827E0,8.319892883E-1,-2.372527122E-2
3.748081776E1,1.465903163E0,8.764801025E-1,-1.967244148E-1
3.750073057E1,1.517434597E0,7.046241760E-1,-1.403379440E-2
3.752063375E1,8.888161182E-1,5.264472961E-1,7.482337952E-2
3.754054177E1,4.567790031E-1,7.855443954E-1,-7.791328430E-2
3.756046614E1,2.853653431E-1,8.332166672E-1,-3.468011618E-1
3.758029890E1,1.831929684E-1,6.364498138E-1,-6.020077467E-1
3.760019880E1,1.852023602E-1,4.578027725E-1,-5.625731945E-1
3.762008614E1,3.992450237E-1,3.330440521E-1,-9.345769882E-2
3.763997734E1,8.332915306E-1,2.741575241E-1,5.628581047E-1
3.765985119E1,1.231250286E0,-1.831054688E-4,1.186999798E0
3.767976624E1,1.186715841E0,-2.321243286E-1,1.330040693E0
3.769965760E1,1.005697370E0,-3.769483566E-1,8.668718338E-1
3.771954770E1,4.256906509E-1,-4.611244202E-1,1.667220592E-1
3.773943802E1,-7.886815071E-2,-1.986894608E-1,-7.913136482E-2
3.775931661E1,-6.834032536E-1,-3.204536438E-2,-1.335141659E-1
3.777922854E1,-9.854421616E-1,6.503200531E-2,-1.313047409E-1
3.779910072E1,-7.383112907E-1,-4.602336884E-2,-3.752875328E-2
3.781900322E1,-3.755936623E-1,5.142211914E-2,9.805107117E-2
3.783888057E1,-2.602458000E-1,3.321695328E-1,1.613771915E-1
3.785879979E1,-4.379827976E-1,3.188209534E-1,2.448399067E-1
3.787867395E1,-5.679075718E-1,5.649757385E-2,3.898546696E-1
3.789858250E1,-4.202084541E-1,-1.378669739E-1,3.854808807E-1
3.791842796E1,-9.618544579E-2,-7.192707062E-2,1.518976688E-1
3.793832786E1,2.329468727E-1,8.752822876E-2,-1.193537712E-1
3.795822625E1,3.996124268E-1,1.443357468E-1,-7.902836800E-2
3.797812479E1,2.240395546E-2,-1.053810120E-1,1.043014526E-1
3.799803374E1,-6.058328152E-1,-2.685813904E-1,2.738547325E-1
3.801788942E1,-8.110153675E-1,2.878093719E-2,1.296906471E-1
3.803779182E1,-7.293453217E-1,-3.371524811E-2,-1.413836479E-1
3.805766213E1,-5.179495811E-1,-2.144813538E-1,-1.692485809E-1
3.807757968E1,-4.662597179E-1,-4.766073227E-1,-6.765222549E-2
3.809745859E1,-2.876558304E-1,-6.091299057E-1,9.425377846E-2
3.811735895E1,2.992558479E-2,-6.738185883E-1,-1.677393913E-2
3.813725041E1,1.181266308E-1,-9.401435852E-1,-4.277992249E-1
3.815716177E1,1.455454826E-1,-1.095312595E0,-5.380874872E-1
3.817700692E1,4.606049061E-1,-1.218150139E0,-9.771764278E-2
3.819693734E1,7.068598270E-1,-1.610949516E0,4.405081272E-1
3.821680468E1,8.378129005E-1,-2.238734722E0,7.731375694E-1
3.823670453E1,1.099858046E0,-3.463181019E0,7.472021580E-1
3.825662192E1,1.617721796E0,-4.663999557E0,8.497734070E-1
3.827651822E1,2.070628881E0,-5.428525925E0,1.598310947E0
3.829638010E1,2.662596226E0,-5.929455757E0,2.449696779E0
3.831628520E1,3.199032784E0,-6.285322189E0,3.222294331E0
3.833613828E1,3.350745201E0,-5.822980404E0,3.918767452E0
3.835605875E1,3.233567715E0,-4.476653576E0,4.243879318E0
3.837594036E1,2.860554457E0,-2.496648788E0,4.169830322E0
3.839584364E1,1.289853573E0,4.189124107E-1,3.853847504E0
3.841571932E1,-1.989371300E0,4.961619854E0,3.975320339E0
3.843561463E1,-6.174046516E0,1.067615604E1,5.372905254E0
3.845555609E1,-1.273275757E1,1.588932610E1,5.600979805E0
3.847538942E1,-2.191315269E1,2.247579384E1,5.357465744E-1
3.849528411E1,-3.127126312E1,3.177255630E1,-6.730566025E0
3.851520609E1,-3.126011658E1,3.634985352E1,-1.307076454E1
3.853506109E1,-2.339641953E1,3.017426300E1,-2.305488014E1
3.855496671E1,-1.532434559E1,1.996724701E1,-3.676432419E1
3.857487385E1,-1.053150749E1,1.336797047E1,-4.735377502E1
3.859476390E1,-3.779844284E0,5.981948376E0,-5.279420471E1
3.861467046E1,1.870174408E0,-8.942425728E0,-5.645094681E1
3.863459255E1,4.092482567E0,-2.589486885E1,-5.310993958E1
3.865441468E1,1.040252972E1,-4.111404037E1,-5.095075226E1
3.867433635E1,2.077643967E1,-4.491859436E1,-4.379737473E1
3.869420770E1,2.239958572E1,-4.160195160E1,-3.026338577E1
3.871410411E1,1.914609909E1,-4.309869003E1,-2.059478760E1
3.873401291E1,1.400091743E1,-4.006745911E1,-1.221937370E1
3.875386546E1,7.372076988E0,-3.470787811E1,-5.728062630E0
3.877376265E1,1.501484394E0,-3.142538643E1,-1.183520675E0
3.879365677E1,-3.358625412E0,-2.771122551E1,2.558106184E0
3.881355348E1,-4.905684471E0,-2.263359261E1,5.132937431E0
3.883349463E1,-4.029840469E0,-1.699508858E1,6.340717793E0
3.885334083E1,-2.390818596E0,-1.304622459E1,6.369581223E0
3.887325125E1,-1.967423439E0,-9.971221924E0,6.385381699E0
3.889311083E1,-2.265683174E0,-5.502710342E0,6.483622551E0
3.891301755E1,-3.846657753E0,-1.164884806E0,5.067524433E0
3.893288500E1,-5.855736732E0,2.221331835E0,2.635560513E0
3.895279234E1,-6.158678055E0,3.520354271E0,1.279787302E0
3.897270062E1,-4.535645008E0,3.944284439E0,9.521760941E-1
3.899260666E1,-3.247100830E0,3.685420513E0,2.234866619E-1
3.901249385E1,-2.408626556E0,3.224435806E0,-2.953922749E-1
3.903237161E1,-1.518865585E0,2.141029835E0,-8.431626558E-1
3.905225593E1,-1.946773529E-1,9.555287361E-1,-1.584346294E0
3.907214645E1,1.251657486E0,2.790174484E-1,-1.900922298E0
3.909204291E1,2.295552969E0,3.918991089E-1,-1.796691895E0
3.911191703E1,3.290004015E0,4.166393280E-1,-1.332994461E0
3.913183437E1,4.076437950E0,2.757644653E-1,-1.157399178E0
3.915169322E1,4.265388489E0,5.459814072E-1,-1.611319304E0
3.917160130E1,4.057126522E0,8.785457611E-1,-1.292119741E0
3.919149213E1,3.053622007E0,1.134300232E0,-5.383038521E-1
3.921140010E1,2.169338226E0,1.314096451E0,-2.133479118E-1
3.923129583E1,1.708733201E0,1.371335030E0,-6.390235424E-1
3.925119489E1,1.562560320E0,8.704338074E-1,-8.134577274E-1
3.927107197E1,1.397467136E0,1.602888107E-1,-3.392448425E-1
3.929094224E1,1.833508253E0,-1.710309982E-1,3.395473957E-1
3.931083265E1,2.452772617E0,-4.908275604E-2,9.344673157E-2
3.933074072E1,2.694255590E0,2.540798187E-1,-5.331542492E-1
3.935065468E1,3.030546904E0,2.463970184E-1,-5.600483418E-1
3.937057171E1,2.865346670E0,9.874725342E-2,-4.110686779E-1
3.939042817E1,2.181683302E0,2.794151306E-1,-3.429038525E-1
3.941028666E1,1.717676997E0,5.792064667E-1,-4.577145576E-1
3.943020151E1,1.286922932E0,6.057300568E-1,-4.466707706E-1
3.945009552E1,1.129881740E0,6.248817444E-1,-1.848230362E-1
3.946998593E1,1.140578866E0,6.995439529E-1,-8.664321899E-2
3.948987338E1,1.060201168E0,7.479467392E-1,-5.476188660E-2
3.950976338E1,9.817469120E-1,7.083377838E-1,8.984971046E-2
3.952965474E1,8.310687542E-1,5.623407364E-1,2.763552666E-1
3.954955656E1,5.542209148E-1,1.883802414E-1,4.633309841E-1
3.956947151E1,2.285568714E-1,-1.753225327E-1,4.971005917E-1
3.958932130E1,-3.824901581E-2,-3.944826126E-1,4.305593967E-1
3.960923015E1,-1.750104427E-1,-3.477783203E-1,5.057761669E-1
3.962909640E1,-2.556929588E-1,-1.880092621E-1,6.287937164E-1
3.964898395E1,-3.642766476E-1,-9.400367737E-2,5.406448841E-1
3.966888046E1,-2.222385406E-1,4.595727921E-1,3.578529358E-1
3.968877046E1,1.048395634E-1,8.996448517E-1,1.678252220E-1
3.970871067E1,3.453483582E-1,7.809457779E-1,1.186966896E-2
3.972860687E1,3.591732979E-1,5.685043335E-1,1.873874664E-2
3.974844302E1,3.664181232E-1,3.898038864E-1,-6.552624702E-2
3.976836187E1,4.547095299E-1,2.629337311E-1,-1.903169155E-1
3.978825458E1,3.630101681E-1,4.402494431E-1,-2.363853455E-1
3.980812536E1,3.521232605E-1,4.984016418E-1,-1.357843876E-1
3.982802588E1,3.874871731E-1,2.145175934E-1,1.056184769E-1
3.984791598E1,5.231494904E-1,-1.214551926E-1,2.993938923E-1
3.986779255E1,4.833652973E-1,-2.850322723E-1,3.849487305E-1
3.988769713E1,3.832170963E-1,-7.706451416E-2,3.281335831E-1
3.990757088E1,2.758862972E-1,4.121208191E-2,2.019612789E-1
3.992748843E1,1.841783524E-1,-2.255439758E-3,3.035278320E-1
3.994736588E1,-9.656810760E-2,-1.215457916E-1,2.973921299E-1
3.996728182E1,-4.336862564E-1,-1.904964447E-1,1.388025284E-1
3.998713921E1,-5.903661251E-1,-2.087478638E-1,1.824045181E-2
4.000705015E1,-7.062141895E-1,-2.346153259E-1,-1.191067696E-2
4.002693255E1,-9.855568409E-1,-3.087530136E-1,1.165578365E-1
4.004681578E1,-1.569116354E0,-6.855964661E-1,2.581498623E-1
4.006671989E1,-2.210622311E0,-1.069782257E0,1.788308620E-1
4.008661411E1,-2.292359352E0,-1.497033596E0,1.367409229E-1
4.010650651E1,-1.784208298E0,-1.997634888E0,-6.301212311E-2
4.012638635E1,-1.113905907E0,-2.519627571E0,-4.644021988E-1
4.014628625E1,-6.433703899E-1,-2.964968681E0,-7.181483507E-1
4.016614932E1,-1.383643150E-1,-3.549669266E0,-8.070960045E-1
4.018607312E1,1.711587906E-1,-4.266450882E0,-7.333056927E-1
4.020596031E1,8.082346916E-1,-4.706136703E0,-5.140218735E-1
4.022583598E1,1.579062939E0,-5.336558342E0,-1.051852703E-1
4.024572932E1,2.282975912E0,-5.718868256E0,5.340478420E-1
4.026561838E1,3.190235138E0,-5.636521339E0,1.110243559E0
4.028553312E1,4.012048244E0,-5.097786903E0,1.258302927E0
4.030539984E1,4.579676628E0,-4.037704468E0,1.136258960E0
4.032529786E1,4.580713272E0,-2.338113308E0,1.464513540E0
4.034519635E1,2.831562996E0,-6.711959839E-1,2.017146826E0
4.036507984E1,-1.191254616E0,1.939932346E0,2.269477367E0
4.038495849E1,-7.118730545E0,8.086398125E0,2.712924719E0
4.040487197E1,-1.252780533E1,1.791398621E1,2.944545269E0
4.042476312E1,-1.818939018E1,2.783419800E1,5.511302948E-1
4.044468166E1,-2.396748352E1,3.455577850E1,-6.668104172E0
4.046460494E1,-2.634220886E1,3.757751846E1,-1.379923630E1
4.048442869E1,-2.582962990E1,3.475999069E1,-2.443565178E1
4.050432286E1,-1.908850098E1,2.818061447E1,-3.691243362E1
4.052421953E1,-9.149204254E0,2.003059387E1,-4.560953140E1
4.054410953E1,-3.751344681E0,9.059026718E0,-5.283753586E1
4.056401458E1,-4.687668800E0,-1.926077724E0,-5.521039581E1
