"Time (s)","Gyroscope x (rad/s)","Gyroscope y (rad/s)","Gyroscope z (rad/s)"
6.991766400E-2,-3.260944486E-1,-1.138467789E-1,4.513924941E-2
8.980021600E-2,-2.765611112E-1,-3.126458824E-1,2.330197208E-2
1.096849030E-1,-2.248307467E-1,-3.958006501E-1,1.371487509E-2
1.296023510E-1,-1.721017063E-1,-3.856809437E-1,6.790860556E-3
1.494703200E-1,-1.272953451E-1,-3.201025128E-1,5.725627299E-3
1.693692780E-1,-9.746882319E-2,-2.540580630E-1,8.388710208E-3
1.892311010E-1,-7.456631213E-2,-1.852839738E-1,2.063889056E-2
2.091474030E-1,-6.544525176E-2,-1.282274276E-1,3.395430371E-2
2.290161530E-1,-4.893414304E-2,-9.999874979E-2,3.501953557E-2
2.489266740E-1,-2.762948163E-2,-6.324820966E-2,3.928046674E-2
2.688099550E-1,-2.869471535E-2,-1.737661287E-2,3.715000302E-2
2.886853720E-1,-4.733629152E-2,1.244991086E-2,2.809552103E-2
3.086043820E-1,-6.864095479E-2,9.786828421E-3,2.756290510E-2
3.284733410E-1,-9.107742459E-2,-6.191667169E-3,2.223674022E-2
3.483614660E-1,-9.800143540E-2,3.801550344E-2,1.424749196E-2
3.682703720E-1,-1.043928340E-1,9.666989744E-2,1.637795754E-2
3.881645390E-1,-1.182408631E-1,8.495233208E-2,2.010627277E-2
4.080620390E-1,-1.272953451E-1,3.854811937E-2,1.957365684E-2
4.279466740E-1,-1.315562725E-1,3.428718820E-2,2.703028731E-2
4.478065700E-1,-1.464695334E-1,5.832150951E-2,4.833494872E-2
4.677053200E-1,-1.726343334E-1,9.666989744E-2,8.941299468E-2
4.875911010E-1,-1.875475943E-1,1.312899739E-1,1.373484880E-1
5.075121430E-1,-2.125805616E-1,1.227681041E-1,1.773612946E-1
5.274046430E-1,-2.397440076E-1,1.233007237E-1,2.189053893E-1
5.472536010E-1,-2.728328109E-1,1.771615744E-1,2.770271599E-1
5.671652160E-1,-3.149095178E-1,2.640446424E-1,3.308880031E-1
5.870777680E-1,-3.602485061E-1,3.541234136E-1,3.772256374E-1
6.069505800E-1,-3.996621072E-1,4.388760030E-1,4.086500108E-1
6.268519350E-1,-4.577838778E-1,4.846810400E-1,4.406735897E-1
6.467159970E-1,-5.057193637E-1,4.841484129E-1,4.678370357E-1
6.666344350E-1,-5.606454611E-1,4.527240396E-1,4.603804052E-1
6.865374550E-1,-6.571156383E-1,4.836157858E-1,4.353474081E-1
7.064471950E-1,-8.079126477E-1,6.206313968E-1,4.353474081E-1
7.262880280E-1,-9.097755551E-1,8.242240548E-1,5.483286977E-1
7.461564140E-1,-9.236236215E-1,1.265563369E0,7.721607685E-1
7.660755800E-1,-9.278845191E-1,2.156697512E0,1.112769008E0
7.859469870E-1,-8.559147120E-1,3.531314135E0,1.600978613E0
8.058514660E-1,-8.266208172E-1,5.109523296E0,2.254432440E0
8.257179240E-1,-1.098987579E0,6.615829468E0,3.065141439E0
8.456263100E-1,-1.636730552E0,8.150297165E0,3.892894030E0
8.655258930E-1,-2.314218760E0,9.691224098E0,4.375245094E0
8.854118820E-1,-2.853626013E0,1.073641682E1,4.574576855E0
9.052683930E-1,-3.652550936E0,1.082330036E1,4.735559940E0
9.251929760E-1,-4.929099560E0,1.006378937E1,4.714787960E0
9.450999550E-1,-6.347390652E0,9.272253990E0,4.737157822E0
9.649667260E-1,-7.914947510E0,8.829849243E0,4.477041245E0
9.848953200E-1,-9.524647713E0,7.402503967E0,4.198283195E0
1.004753445E0,-9.993150711E0,4.288162231E0,4.112465382E0
1.024630893E0,-7.122414112E0,9.692289233E-1,4.473312855E0
1.044534330E0,-1.708700299E0,-1.187335372E0,3.006487131E0
1.064456518E0,1.865555882E0,-1.141463757E0,-2.129467487E0
1.084297664E0,2.571272850E0,-3.652417660E0,-3.445429564E0
1.104192664E0,1.236668944E0,-5.967235565E0,-1.416826487E0
1.124099955E0,8.981911540E-1,-4.812256813E0,-1.192994356E0
1.143959591E0,1.606571078E0,-4.769580841E0,-1.542124510E0
1.163830580E0,2.357027769E0,-6.579678059E0,-2.633122921E0
1.183742091E0,2.679460526E0,-8.176528931E0,-4.363793850E0
1.203627560E0,2.625666142E0,-8.811341286E0,-5.328029156E0
1.223534643E0,2.441247702E0,-8.570465088E0,-5.414912224E0
1.243467403E0,2.248307467E0,-8.121136665E0,-5.041814327E0
1.263312195E0,1.927405953E0,-7.808757305E0,-4.808861256E0
1.283192716E0,1.418956995E0,-7.427137375E0,-4.978366375E0
1.303100893E0,1.044793844E0,-7.138792038E0,-5.111587048E0
1.322951882E0,9.136370420E-1,-7.408495903E0,-4.906396866E0
1.342878705E0,7.473275661E-1,-7.615284443E0,-4.708130360E0
1.362736778E0,3.353486657E-1,-6.785401344E0,-4.612192631E0
1.382636570E0,-7.922670804E-3,-5.081960678E0,-4.401676178E0
1.402560216E0,1.205710620E-1,-3.504816294E0,-3.962999821E0
1.422453185E0,1.386800259E-1,-2.389250994E0,-3.294100046E0
1.442398914E0,-1.150451675E-1,-8.979248405E-1,-2.798367262E0
1.462178601E0,-1.374150664E-1,7.245581746E-1,-2.364018440E0
1.482101153E0,1.477345079E-1,1.572550297E0,-1.792587399E0
1.501980007E0,2.873466015E-1,1.298585653E0,-1.288399339E0
1.521848810E0,1.179079786E-1,4.868114889E-1,-9.067795873E-1
1.541765112E0,-9.107742459E-2,-2.696371078E-2,-5.395405293E-1
1.561629070E0,-2.008630037E-1,-1.388797611E-1,-1.957365721E-1
1.581522560E0,-2.434723228E-1,-3.388772532E-2,7.396712154E-2
1.601424539E0,-6.065170467E-2,5.326830745E-1,1.640458852E-1
1.621324539E0,8.375394344E-2,6.430012584E-1,2.802228630E-1
1.641226518E0,5.073172227E-2,1.542590559E-1,3.015275300E-1
1.661096362E0,4.061200842E-2,-1.266295761E-1,1.880136281E-1
1.680972299E0,1.877473295E-2,-1.879470497E-1,1.384137124E-1
1.700858757E0,-4.254274443E-2,-1.010639817E-1,7.343450189E-2
1.720772091E0,-8.628387749E-2,1.671084389E-2,-5.459319334E-3
1.740646674E0,-1.102516204E-1,2.256962471E-2,-2.995967865E-2
1.760573705E0,-1.177082509E-1,-1.047922969E-1,-4.547213390E-2
1.780470997E0,-1.219691783E-1,-1.730337888E-1,-7.263557613E-2
1.800346257E0,-1.240996495E-1,-8.561810106E-2,-8.062482625E-2
1.820195060E0,-1.225017980E-1,-2.483324520E-2,-6.251586229E-2
1.840105789E0,-1.299584359E-1,-8.987903595E-2,-5.239614844E-2
1.860001257E0,-1.379476786E-1,-1.799578071E-1,-6.304848194E-2
1.879865685E0,-1.496652365E-1,-1.703707129E-1,-8.382052183E-2
1.899768080E0,-1.454043090E-1,-9.254211932E-2,-9.553808719E-2
1.919642924E0,-1.145125479E-1,-5.199668556E-2,-9.180977196E-2
1.939561726E0,-8.362079412E-2,-8.455286920E-2,-6.411371380E-2
1.959427924E0,-6.331478804E-2,-1.356840581E-1,-4.813521728E-2
1.979328914E0,-7.396712154E-2,-1.452711523E-1,-7.742912322E-2
1.999216414E0,-7.290188223E-2,-1.037270650E-1,-9.607070684E-2
2.019120372E0,-7.882724702E-2,-7.390054315E-2,-7.636389136E-2
2.038991570E0,-7.077141851E-2,-9.467258304E-2,-6.784202904E-2
2.058870789E0,-6.278216839E-2,-1.356840581E-1,-4.920044914E-2
2.078758653E0,-7.509893179E-2,-1.218360290E-1,-2.569874749E-2
2.098665685E0,-7.776200771E-2,-7.975932211E-2,-1.611164957E-2
2.118545737E0,-7.509893179E-2,-3.814865649E-2,1.997311832E-3
2.138432195E0,-7.290188223E-2,-1.311568171E-2,3.129122034E-2
2.158320320E0,-5.958647281E-2,1.997311920E-4,4.034570232E-2
2.178195424E0,-6.704310328E-2,-1.418091450E-2,5.532554165E-2
2.198119851E0,-7.882724702E-2,-1.311568171E-2,5.319507420E-2
2.217991726E0,-7.236927003E-2,2.330197254E-3,2.223674022E-2
2.237867820E0,-4.467320815E-2,-6.724283565E-3,-6.657706108E-4
2.257789122E0,-2.017285116E-2,-3.601819277E-2,3.062544856E-3
2.277649799E0,-4.660394625E-4,-5.093145370E-2,1.264964230E-2
2.297557143E0,1.125152409E-2,-6.218297780E-2,1.904104091E-2
2.317469122E0,1.284937374E-2,-6.963960826E-2,3.182383627E-2
2.337371101E0,1.125152409E-2,-3.974650800E-2,4.194355011E-2
2.357226414E0,-4.726971500E-3,1.191729400E-2,4.567186534E-2
2.377128757E0,-8.987903595E-3,3.109148890E-2,4.946675897E-2
2.396989903E0,-6.324821152E-3,3.395430278E-3,4.513924941E-2
2.416891987E0,-9.520520456E-3,-2.536586113E-2,4.034570232E-2
2.436771674E0,-9.520520456E-3,-8.655018173E-4,3.129122034E-2
2.456677716E0,-1.111837011E-2,5.832150951E-2,1.691057347E-2
2.476593757E0,-1.964023337E-2,1.078548431E-1,1.744319126E-2
2.496496153E0,-3.721657768E-2,1.329544038E-1,3.501953557E-2
2.516381101E0,-4.893414304E-2,1.222354919E-1,4.620448127E-2
2.536254643E0,-4.946675897E-2,8.868064731E-2,5.745600536E-2
2.556135007E0,-4.999937490E-2,6.897383928E-2,7.130403817E-2
2.576010841E0,-4.467320815E-2,7.430000603E-2,9.633701295E-2
2.595908028E0,-4.467320815E-2,1.259638071E-1,1.027284116E-1
2.615797507E0,-3.881442919E-2,1.723680198E-1,8.195636421E-2
2.635693080E0,-2.549901605E-2,1.713027805E-1,7.236927003E-2
2.655561987E0,-1.964023337E-2,1.643787771E-1,8.621729910E-2
2.675477872E0,-3.661738476E-3,1.947379112E-1,9.047822654E-2
2.695358601E0,1.930734888E-2,2.208361179E-1,8.941299468E-2
2.715228341E0,3.475322574E-2,2.234992087E-1,9.900009632E-2
2.735139799E0,4.220985994E-2,2.517944574E-1,1.187069044E-1
2.755028757E0,4.487293959E-2,2.800231278E-1,1.394789517E-1
2.774929747E0,5.019910634E-2,2.565880120E-1,1.459369212E-1
2.794819122E0,4.007939249E-2,2.224339694E-1,1.475347728E-1
2.814687299E0,1.657768898E-2,2.352833450E-1,1.480673850E-1
2.834624018E0,1.131810131E-3,2.416747361E-1,1.459369212E-1
2.854498289E0,-1.964023337E-2,2.107164115E-1,1.539261788E-1
2.874397039E0,-6.065170467E-2,1.713027805E-1,1.528609395E-1
2.894246414E0,-1.059906855E-1,1.307573467E-1,1.405441761E-1
2.914126466E0,-1.768952608E-1,7.802832127E-2,1.432738453E-1
2.934052039E0,-2.551898956E-1,1.264964230E-3,1.464695334E-1
2.953944695E0,-3.303554058E-1,-9.840089828E-2,1.416759938E-1
2.973801049E0,-4.310864806E-1,-1.661097705E-1,1.357506365E-1
2.993701466E0,-5.846132040E-1,-1.452711523E-1,1.571218669E-1
3.013591466E0,-8.084452748E-1,-1.045259926E-2,2.887447178E-1
3.033485164E0,-1.017430663E0,6.525883675E-1,5.088484883E-1
3.053414174E0,-1.070159674E0,2.320876360E0,9.976572990E-1
3.073275789E0,-9.902006984E-1,4.709794521E0,1.736396432E0
3.093136362E0,-9.497218132E-1,7.140789509E0,2.800763845E0
3.113041778E0,-1.093661427E0,9.164066315E0,4.267589569E0
3.132938914E0,-1.517357826E0,1.073375416E1,5.503592968E0
3.152834747E0,-2.371208668E0,1.178853416E1,6.058979034E0
3.172700632E0,-3.571526527E0,1.217554665E1,5.920432091E0
3.192619851E0,-4.833694458E0,1.192821312E1,5.361850262E0
3.212507039E0,-6.107047558E0,1.103594685E1,4.865118980E0
3.232418341E0,-7.656961441E0,9.403944016E0,4.319320202E0
3.252266778E0,-9.394556046E0,6.717625618E0,3.143502712E0
3.272154903E0,-1.035027027E1,3.316536427E0,2.810351133E0
3.292052091E0,-8.287512779E0,1.464362502E0,4.075714588E0
3.311942039E0,-2.765677929E0,4.681699276E-1,4.594349861E0
3.331841935E0,1.973277569E0,5.619769692E-1,5.701659918E-1
3.351725060E0,3.340903759E0,-4.683030546E-1,-3.400157213E0
3.371599122E0,1.624680042E0,-3.727583170E0,-1.764891386E0
3.391481153E0,1.034607589E-1,-4.150280952E0,-1.845516264E-1
3.411407612E0,6.138405204E-2,-2.865210533E0,-1.349517107E-1
3.431290112E0,9.221588969E-1,-3.616732359E0,-7.069152594E-1
3.451179487E0,1.904503465E0,-5.506721973E0,-2.433258533E0
3.471081205E0,2.587251186E0,-6.848849297E0,-4.175646782E0
3.490946362E0,2.946501017E0,-7.337058544E0,-4.642019272E0
3.510830841E0,3.086179733E0,-7.167553425E0,-4.502407074E0
3.530724382E0,2.770604610E0,-6.573286533E0,-4.781165123E0
3.550634955E0,2.256296635E0,-6.094131470E0,-5.291744709E0
3.570548810E0,1.830403209E0,-6.192732334E0,-5.485750198E0
3.590416987E0,1.463164091E0,-6.889328003E0,-5.076967239E0
3.610296882E0,1.079413891E0,-7.434594154E0,-4.656932354E0
3.630175216E0,7.499906421E-1,-7.199044704E0,-4.606866360E0
3.650063028E0,5.965304971E-1,-6.397389889E0,-4.562060356E0
3.669967195E0,5.320172906E-1,-5.243476391E0,-4.354739189E0
3.689847820E0,4.712324440E-1,-4.024450302E0,-3.936901569E0
3.709733132E0,3.108483255E-1,-2.907819748E0,-3.437973022E0
3.729620320E0,1.967352182E-1,-1.818419337E0,-2.949230671E0
3.749505372E0,1.946047544E-1,-6.122426987E-1,-2.569741488E0
3.769422039E0,4.472647011E-1,4.564523399E-1,-2.144380569E0
3.789269799E0,6.887397170E-1,1.081144929E0,-1.707302213E0
3.809165632E0,7.686987519E-1,9.665657878E-1,-1.278279662E0
3.829097664E0,5.171040297E-1,3.972653449E-1,-8.539839983E-1
3.848962039E0,1.903438270E-1,-7.496577501E-2,-5.336817503E-1
3.868830945E0,-1.857500151E-2,-3.553217947E-1,-2.202369273E-1
3.888751726E0,-3.987966105E-2,-3.830178380E-1,1.637795754E-2
3.908628237E0,8.162347972E-2,-2.257628292E-1,2.189053893E-1
3.928522716E0,1.914090663E-1,-1.980667710E-1,3.575188220E-1
3.948428966E0,2.223673910E-1,-3.649088740E-1,3.734973371E-1
3.968322299E0,2.047910541E-1,-4.528571963E-1,3.340837061E-1
3.988184070E0,1.940721422E-1,-3.489303887E-1,2.472006381E-1
4.008067716E0,1.658434719E-1,-1.565226763E-1,1.757634431E-1
4.027974435E0,1.157775149E-1,-6.804175675E-2,1.128481254E-1
4.047864695E0,2.250304818E-2,-2.065886259E-1,5.212984234E-2
4.067752143E0,-1.017297506E-1,-4.000615776E-1,-7.057168987E-3
4.087642820E0,-1.710364819E-1,-4.880098701E-1,-9.447285533E-2
4.107497195E0,-1.987325400E-1,-5.141080618E-1,-1.898777932E-1
4.127400320E0,-2.120479494E-1,-4.096486866E-1,-2.485321760E-1
4.147278341E0,-2.296242863E-1,-2.428731322E-1,-2.591845095E-1
4.167175112E0,-2.503963411E-1,-2.060560137E-1,-2.309558392E-1
4.187070060E0,-2.312221378E-1,-3.291569948E-1,-2.021279633E-1
4.206940945E0,-1.875475943E-1,-4.496614933E-1,-1.376813650E-1
4.226844747E0,-1.854171306E-1,-4.374113083E-1,-1.051251814E-1
4.246727247E0,-2.163088769E-1,-3.686372042E-1,-1.242993772E-1
4.266624070E0,-2.120479494E-1,-3.248960674E-1,-1.285603046E-1
4.286554018E0,-1.944715977E-1,-3.195699155E-1,-1.115165800E-1
4.306453341E0,-1.795583367E-1,-3.110480309E-1,-1.035273373E-1
4.326303810E0,-1.581871063E-1,-2.588516176E-1,-1.029947177E-1
4.346170424E0,-1.459369212E-1,-1.985993832E-1,-9.820117056E-2
4.366151049E0,-1.464695334E-1,-1.836861223E-1,-7.955959439E-2
4.385980737E0,-1.432738453E-1,-2.103169411E-1,-5.772231519E-2
4.405879487E0,-1.235670298E-1,-2.353499234E-1,-3.155753016E-2
4.425741257E0,-1.107842326E-1,-2.060560137E-1,-8.122402243E-3
4.445648601E0,-1.081211492E-1,-1.260969639E-1,7.323476952E-3
4.465521935E0,-9.587097168E-2,-9.520520270E-2,4.660394508E-3
4.485422768E0,-7.829462737E-2,-1.095858440E-1,1.637795754E-2
4.505331518E0,-5.479292199E-2,-8.721595258E-2,3.129122034E-2
4.525200424E0,-4.254274443E-2,-2.643109486E-2,4.354140162E-2
4.545104122E0,-3.348826244E-2,3.002625518E-2,5.266245827E-2
4.564976987E0,-2.443378232E-2,8.122401685E-2,5.798862129E-2
4.584883601E0,-2.336854860E-2,1.356174797E-1,6.065170467E-2
4.604752403E0,-2.070546709E-2,1.617156863E-1,7.183665037E-2
4.624680320E0,-2.230331674E-2,1.468024254E-1,9.633701295E-2
4.644566518E0,-1.537930220E-2,1.083874628E-1,1.165764406E-1
4.664444851E0,-4.194355104E-3,8.015878499E-2,1.224352196E-1
4.684319278E0,-1.271621883E-2,9.400681406E-2,1.256309152E-1
4.704227195E0,-2.762948163E-2,1.606504619E-1,1.256309152E-1
4.724092976E0,-3.348826244E-2,2.149773389E-1,1.208373681E-1
4.743992247E0,-2.762948163E-2,2.267614752E-1,1.112502739E-1
4.763872195E0,-2.336854860E-2,2.171078026E-1,1.091198102E-1
4.783781205E0,-2.603163198E-2,1.856834292E-1,1.080545783E-1
4.803666153E0,-2.709686570E-2,1.585199833E-1,1.005979404E-1
4.823540007E0,-2.869471535E-2,1.622482985E-1,8.888038248E-2
4.843466049E0,-3.348826244E-2,2.011293173E-1,8.515206724E-2
4.863360476E0,-3.721657768E-2,2.224339694E-1,8.302159607E-2
4.883233445E0,-3.242303059E-2,1.899443567E-1,7.503235340E-2
4.903103132E0,-2.709686570E-2,1.526612043E-1,6.544525176E-2
4.923014435E0,-2.603163198E-2,1.489328891E-1,6.757572293E-2
4.942921987E0,-2.496639825E-2,1.446719617E-1,7.130403817E-2
4.962788914E0,-1.484668534E-2,1.270290315E-1,7.290188223E-2
4.982669382E0,-6.324821152E-3,1.233007237E-1,6.331478804E-2
5.002559382E0,5.392742343E-3,1.302247345E-1,5.639077350E-2
5.022470789E0,1.497983932E-2,1.307573467E-1,6.544525176E-2
5.042363757E0,1.551245619E-2,1.169093251E-1,6.704310328E-2
5.062226830E0,3.368799388E-2,1.078548431E-1,5.372769013E-2
5.082132768E0,5.872096866E-2,1.057243794E-1,5.106460676E-2
5.102003028E0,7.469946891E-2,6.471290439E-2,6.810833514E-2
5.121911518E0,7.097115368E-2,-3.708342463E-2,1.048588753E-1
5.141795320E0,3.688369319E-2,-1.303578913E-1,1.555240154E-1
5.161682924E0,-2.123808302E-2,-1.725011766E-1,2.268946320E-1
5.181563862E0,-1.262301207E-1,-2.140452564E-1,3.004622757E-1
5.201460372E0,-3.111811876E-1,-2.972000241E-1,3.671059310E-1
5.221352091E0,-5.286219120E-1,-3.521260917E-1,4.763588905E-1
5.241240685E0,-7.732926011E-1,-2.434057444E-1,6.836798787E-1
5.261136778E0,-9.491891861E-1,1.958031505E-1,9.011871219E-1
5.280998757E0,-1.074953318E0,1.152582169E0,1.151650071E0
5.300901414E0,-1.026485205E0,2.680126190E0,1.482671261E0
5.320782820E0,-1.023822069E0,4.442221642E0,1.807300925E0
5.340691101E0,-1.119759679E0,6.015104771E0,2.259758711E0
5.360566153E0,-1.336135149E0,7.321479797E0,2.857820511E0
5.380498237E0,-1.623947740E0,8.458349228E0,3.359878063E0
5.400386570E0,-1.898445010E0,9.488163948E0,3.658942223E0
5.420249695E0,-2.320610046E0,1.024874020E1,4.037366390E0
5.440139018E0,-3.104621649E0,1.054400921E1,4.571913719E0
5.460010424E0,-3.989963531E0,1.048535538E1,4.962654114E0
5.479893028E0,-5.235553741E0,1.056318378E1,4.504803658E0
5.499808028E0,-6.922017574E0,1.003928852E1,3.384977579E0
5.519669487E0,-8.669665337E0,6.960631847E0,2.813014030E0
5.539580841E0,-9.714924812E0,2.373672009E0,2.789578915E0
5.559467455E0,-8.437311172E0,-2.316216081E-1,3.403086662E0
5.579381414E0,-3.929711103E0,-1.077017188E0,4.087965012E0
5.599249226E0,7.206967473E-1,-1.549780846E0,1.926141024E0
5.619144226E0,3.034449339E0,-1.489528656E0,-3.207216978E0
5.639031518E0,3.914464951E0,-3.874186039E0,-4.193223000E0
5.658913132E0,3.866462946E0,-6.037075043E0,-2.758953571E0
5.678830997E0,3.940563202E0,-5.485949993E0,-3.033450842E0
5.698678028E0,3.892561197E0,-5.173104286E0,-3.629315376E0
5.718579539E0,3.534975767E0,-6.079751015E0,-4.094622612E0
5.738478966E0,3.098429918E0,-7.047115803E0,-4.911722660E0
5.758393080E0,2.759419680E0,-7.979860306E0,-5.198470116E0
5.778287976E0,2.345842838E0,-8.583781242E0,-4.919712067E0
5.798139591E0,1.858099222E0,-8.374795914E0,-4.758196354E0
5.818031987E0,1.609766841E0,-7.601968765E0,-4.867515564E0
5.837931101E0,1.410435081E0,-7.031136990E0,-4.737956524E0
5.857811882E0,1.227081895E0,-6.588200092E0,-4.263062477E0
5.877716935E0,9.547150731E-1,-5.726892471E0,-3.780711651E0
5.897590789E0,7.607095242E-1,-4.373580456E0,-3.333513498E0
5.917497455E0,7.862751484E-1,-2.818806410E0,-2.932719707E0
5.937403549E0,9.072456360E-1,-1.493789554E0,-2.444443464E0
5.957262195E0,8.870062232E-1,-4.725640118E-1,-1.935994387E0
5.977168289E0,8.475260139E-1,3.333513737E-1,-1.608168960E0
5.997040320E0,9.184306264E-1,7.682327628E-1,-1.287334085E0
6.016931882E0,8.806148171E-1,9.660332203E-1,-9.653674364E-1
6.036830320E0,7.979927063E-1,1.024088383E0,-7.324808836E-1
6.056701518E0,7.041856050E-1,8.258218765E-1,-5.016582012E-1
6.076600007E0,5.816172361E-1,5.209655166E-1,-2.735651433E-1
6.096508289E0,4.461994767E-1,3.946022689E-1,-9.340762347E-2
6.116383080E0,2.894770801E-1,5.199003220E-1,5.372769013E-2
6.136255216E0,1.493323594E-1,6.344794035E-1,1.208373681E-1
6.156146518E0,5.286218971E-2,4.106473327E-1,1.640458852E-1
6.176055372E0,-1.857500151E-2,-4.061201122E-3,1.053914949E-1
6.195919330E0,-4.726971500E-3,-3.147763610E-1,2.117150649E-2
6.215835685E0,5.392742157E-2,-4.272916019E-1,-1.078548469E-2
6.235713289E0,1.055912226E-1,-3.425389826E-1,6.790860556E-3
6.255596987E0,5.392742157E-2,-1.698380858E-1,4.946675897E-2
6.275501726E0,-4.041227698E-2,6.151720881E-2,-6.657706108E-4
6.295384903E0,-1.225017980E-1,1.233007237E-1,-1.078548469E-2
6.315255216E0,-2.184393406E-1,-5.845466256E-2,3.129122034E-2
6.335155893E0,-2.535920441E-1,-2.620473206E-1,-2.263620263E-3
6.355030164E0,-2.541246414E-1,-3.894092441E-1,-5.452661589E-2
6.374940424E0,-2.712349594E-1,-4.117791355E-1,-1.029947177E-1
6.394824018E0,-2.781589627E-1,-3.313540518E-1,-1.462032348E-1
6.414708966E0,-2.519941926E-1,-3.041240275E-1,-1.419423074E-1
6.434648966E0,-2.611152530E-1,-3.702350557E-1,-1.077882648E-1
6.454512560E0,-2.909417748E-1,-4.139096141E-1,-8.062482625E-2
6.474436830E0,-3.127790391E-1,-3.830178380E-1,-5.505923182E-2
6.494284903E0,-3.202356696E-1,-3.654415011E-1,-3.901416063E-2
6.514171778E0,-2.978657782E-1,-3.910070956E-1,-3.102491237E-2
6.534082351E0,-2.957353294E-1,-3.787569106E-1,-4.061200842E-2
6.553957195E0,-2.872134447E-1,-3.334845006E-1,-5.932016298E-2
6.573863810E0,-2.669740319E-1,-3.318866491E-1,-7.423342764E-2
6.593722560E0,-2.317547649E-1,-3.201025128E-1,-9.873378277E-2
6.613604174E0,-1.928737611E-1,-1.922079772E-1,-1.093861163E-1
6.633513132E0,-1.597849578E-1,-6.191667169E-3,-6.304848194E-2
6.653464851E0,-1.363498271E-1,8.708280325E-2,-2.356828004E-2
6.673301257E0,-1.155777797E-1,6.844121963E-2,-5.459319334E-3
6.693191153E0,-1.091863886E-1,4.340824485E-2,-1.331541280E-4
6.713099955E0,-1.011971384E-1,7.216953486E-2,1.371487509E-2
6.732946935E0,-9.853405505E-2,1.324217767E-1,3.235645220E-2
6.752868289E0,-9.001219273E-2,1.489328891E-1,4.087831825E-2
6.772726257E0,-8.521863818E-2,1.238333359E-1,6.810833514E-2
6.792630528E0,-6.810833514E-2,1.179745570E-1,9.846747667E-2
6.812554695E0,-5.372769013E-2,1.505307406E-1,1.362832487E-1
6.832464955E0,-3.774919361E-2,2.294245660E-1,1.384137124E-1
6.852293028E0,-1.165098604E-2,3.280251920E-1,1.384137124E-1
6.872172976E0,2.090519853E-2,4.122451842E-1,1.667089611E-1
6.892089070E0,4.700340703E-2,4.649742246E-1,1.651111245E-1
6.911947976E0,5.446003750E-2,4.527240396E-1,1.581871063E-1
6.931856466E0,4.593817517E-2,3.892760873E-1,1.523283273E-1
6.951773185E0,4.966649041E-2,3.173728585E-1,1.581871063E-1
6.971670476E0,5.446003750E-2,2.842840552E-1,1.587197185E-1
6.991549018E0,4.753602296E-2,2.730991244E-1,1.635132730E-1
7.011444330E0,3.688369319E-2,2.741643488E-1,1.624480337E-1
7.031315424E0,4.114462435E-2,2.528596818E-1,1.629806459E-1
7.051185268E0,4.061200842E-2,1.899443567E-1,1.544587910E-1
7.071109747E0,2.623136342E-2,1.291595101E-1,1.486000121E-1
7.090979174E0,-1.531272428E-3,8.868064731E-2,1.486000121E-1
7.110876414E0,-3.508611396E-2,1.244991086E-2,1.362832487E-1
7.130765997E0,-7.183665037E-2,-9.307473898E-2,1.229678392E-1
7.150649799E0,-1.320888996E-1,-1.788925678E-1,1.298918575E-1
7.170545060E0,-2.035260797E-1,-2.428731322E-1,1.384137124E-1
7.190484903E0,-2.952027023E-1,-3.430716097E-1,1.608501822E-1
7.210302872E0,-4.668383598E-1,-4.757596850E-1,1.885462403E-1
7.230211570E0,-6.640396118E-1,-5.258922577E-1,2.850164175E-1
7.250102455E0,-8.900021911E-1,-1.826208830E-1,4.539889991E-1
7.269972716E0,-1.063235760E0,7.490585446E-1,7.290188670E-1
7.289859695E0,-1.098987579E0,2.278799772E0,1.200184703E0
7.309764695E0,-1.129346728E0,4.095221996E0,1.748646617E0
7.329644070E0,-1.269491434E0,5.709715366E0,2.271010160E0
7.349523914E0,-1.410768032E0,6.999579430E0,2.745371819E0
7.369425372E0,-1.673547626E0,8.052229881E0,3.296496630E0
7.389342976E0,-2.130865574E0,9.092096329E0,3.811869860E0
7.409221726E0,-2.846635580E0,1.001099300E1,4.181771755E0
7.429108341E0,-3.767129898E0,1.037343884E1,4.381103516E0
7.448994018E0,-4.987753868E0,1.020127106E1,4.267589569E0
7.468870320E0,-6.762099266E0,9.651743889E0,4.214860916E0
7.488771362E0,-8.573727608E0,8.356553078E0,3.972320557E0
7.508669903E0,-1.015619755E1,4.996009350E0,3.484110832E0
7.528533653E0,-1.024627686E1,1.113101959E0,3.780445337E0
7.548457351E0,-6.569159031E0,8.015878499E-2,4.792083740E0
7.568350685E0,-4.294886291E-1,-3.206351399E-1,3.869991541E0
7.588232768E0,3.152224302E0,-4.021920562E-1,-1.900841713E0
7.608117403E0,4.087632179E0,-3.094368696E0,-5.209122658E0
7.628013445E0,3.895224333E0,-6.643126011E0,-3.340970278E0
7.647891205E0,3.725785732E0,-5.993400574E0,-3.183182478E0
7.667768237E0,3.659142017E0,-4.559064388E0,-3.637304783E0
7.687688862E0,3.460875511E0,-4.979098797E0,-3.402820349E0
7.707555841E0,3.095234394E0,-5.595202923E0,-3.937434196E0
7.727434747E0,2.774332762E0,-6.379813671E0,-4.295019627E0
7.747343132E0,2.628329277E0,-7.303503990E0,-3.998685122E0
7.767221987E0,2.480128765E0,-7.632860661E0,-3.751417875E0
7.787129226E0,2.346375465E0,-7.157966614E0,-3.922454357E0
7.807002091E0,2.220544815E0,-6.693192005E0,-4.005076408E0
7.826890997E0,2.024941444E0,-6.609504700E0,-3.785505295E0
7.846780112E0,1.775477171E0,-6.338735580E0,-3.485442400E0
7.866661778E0,1.616690874E0,-5.415045261E0,-3.200292826E0
7.886573601E0,1.583069444E0,-4.128976345E0,-2.827727556E0
7.906466518E0,1.600179791E0,-2.985648394E0,-2.445508718E0
7.926381935E0,1.321421623E0,-2.060360432E0,-2.093249559E0
7.946245476E0,9.515193701E-1,-1.292327404E0,-1.741456270E0
7.966122664E0,6.716960073E-1,-6.878741980E-1,-1.482937574E0
7.986025737E0,5.634416938E-1,-3.627784252E-1,-1.241462469E0
8.005900424E0,4.030575454E-1,-3.248960674E-1,-9.211602807E-1
8.025807195E0,1.935395300E-1,-1.831535101E-1,-6.567827463E-1
8.045693757E0,9.280842543E-2,1.537264436E-1,-4.585162401E-1
8.065567455E0,1.338198967E-2,3.002625704E-1,-2.341515273E-1
8.085478601E0,-1.219691783E-1,2.624467909E-1,-3.315537795E-2
8.105330945E0,-1.784931123E-1,3.189707100E-1,2.862813696E-2
8.125228862E0,-1.806235760E-1,2.549901605E-1,1.053914949E-1
8.145111674E0,-2.381461561E-1,3.395430278E-3,1.693720520E-1
8.165023393E0,-1.896780580E-1,-1.618488431E-1,8.994561434E-2
8.184890528E0,-1.555240154E-1,-3.329519033E-1,2.063889056E-2
8.204780320E0,-1.581871063E-1,-5.328162313E-1,-3.901416063E-2
8.224670528E0,-1.523283273E-1,-6.085143685E-1,-7.103772461E-2
8.244580685E0,-1.774278730E-1,-4.991948307E-1,-5.452661589E-2
8.264457716E0,-2.253633589E-1,-1.783599555E-1,-9.926640242E-2
8.284393757E0,-2.456027865E-1,1.910095960E-1,-1.904104054E-1
8.304240424E0,-2.797568142E-1,2.885449827E-1,-2.250304818E-1
8.324138549E0,-3.069202602E-1,1.169093251E-1,-2.389450818E-1
8.344027351E0,-2.824199200E-1,-7.656362653E-2,-2.031932026E-1
8.363907716E0,-2.227002829E-1,-1.671750098E-1,-1.462032348E-1
8.383816257E0,-1.763626486E-1,-1.970015317E-1,-1.173753664E-1
8.403682560E0,-1.635132730E-1,-2.332194597E-1,-1.125818118E-1
8.423607507E0,-1.486000121E-1,-2.358825356E-1,-9.500546753E-2
8.443480112E0,-1.187734827E-1,-1.911427528E-1,-7.742912322E-2
8.463370320E0,-9.480573982E-2,-1.820882708E-1,-6.730940938E-2
8.483253862E0,-8.095771074E-2,-2.321542203E-1,-1.115165800E-1
8.503161518E0,-6.970618665E-2,-2.466014475E-1,-1.467358470E-1
8.523038289E0,-5.426030606E-2,-1.410102248E-1,-1.322886199E-1
8.542956257E0,-3.668396175E-2,-2.643109486E-2,-1.088534966E-1
8.562833810E0,-2.762948163E-2,-8.854749613E-3,-9.234238416E-2
8.582708132E0,-2.390116639E-2,-3.015941009E-2,-8.754883707E-2
8.602590424E0,-2.603163198E-2,-2.749632671E-2,-5.772231519E-2
8.622527143E0,-3.828181326E-2,-3.528584493E-3,-6.524552125E-3
8.642458080E0,-4.786890745E-2,1.351514366E-2,2.862813696E-2
8.662247768E0,-5.426030606E-2,3.588503599E-2,4.407401755E-2
8.682144330E0,-6.011908874E-2,7.270215452E-2,5.798862129E-2
8.702027924E0,-4.254274443E-2,1.131810099E-1,8.089113235E-2
8.721943028E0,-2.549901605E-2,1.356174797E-1,9.686962515E-2
8.741843914E0,-3.295564651E-2,1.649113894E-1,1.101850420E-1
8.761696205E0,-4.680367559E-2,2.096511722E-1,1.171090528E-1
8.781606674E0,-3.881442919E-2,2.262288630E-1,1.149785891E-1
8.801486153E0,-1.804238372E-2,1.920748353E-1,1.139133573E-1
8.821410476E0,-2.063889056E-3,1.521285921E-1,1.213699877E-1
8.841251935E0,-1.271621883E-2,1.462698132E-1,1.266961545E-1
8.861152716E0,-1.537930220E-2,1.755637228E-1,1.096524224E-1
8.881053341E0,-4.660394625E-4,1.888791323E-1,9.793486446E-2
8.900938393E0,8.055824786E-3,1.776941866E-1,1.011305600E-1
8.920831622E0,-9.986559162E-4,1.782267988E-1,1.144459695E-1
8.940733080E0,-5.792204756E-3,1.915422082E-1,1.213699877E-1
8.960620632E0,1.664426643E-3,1.729006320E-1,1.155112088E-1
8.980496518E0,6.990591530E-3,1.312899739E-1,1.123155057E-1
9.000444955E0,1.071890723E-2,9.187635034E-2,1.224352196E-1
9.020292664E0,1.817553863E-2,5.352795869E-2,1.507304758E-1
9.040161987E0,3.688369319E-2,3.002625518E-2,1.597849578E-1
9.060084122E0,4.061200842E-2,1.351514366E-2,1.624480337E-1
9.079956362E0,2.356828004E-2,5.525896326E-3,1.651111245E-1
9.099844330E0,2.729659667E-3,-1.098521519E-2,1.640458852E-1
9.119734435E0,-1.644453406E-2,-2.003969625E-2,1.459369212E-1
9.139632247E0,-3.987966105E-2,-9.919982404E-3,1.101850420E-1
9.159522143E0,-9.374050796E-2,6.058512721E-3,8.515206724E-2
9.179429226E0,-1.859497428E-1,2.576532401E-2,6.011908874E-2
9.199286049E0,-3.037245572E-1,4.447348043E-2,4.999937490E-2
9.219165164E0,-4.342821836E-1,7.643046975E-2,3.342168778E-2
9.239081830E0,-5.803522468E-1,8.974587917E-2,6.544525176E-2
9.258959903E0,-7.594445944E-1,6.737598777E-2,2.764945328E-1
9.278832299E0,-8.713606000E-1,3.956674933E-1,8.409348726E-1
9.298749851E0,-7.818144560E-1,1.381740332E0,1.556771517E0
9.318626518E0,-7.248244882E-1,2.835783482E0,2.207029581E0
9.338538966E0,-6.539199352E-1,4.442754269E0,2.831722260E0
9.358423705E0,-6.890726089E-1,5.963440895E0,3.821989536E0
9.378315528E0,-9.071124792E-1,7.683392525E0,5.254195213E0
9.398181778E0,-1.458170891E0,9.814857483E0,6.589864254E0
9.418100372E0,-2.581259251E0,1.201669407E1,7.572208881E0
9.437961778E0,-4.772909641E0,1.411353874E1,7.690516472E0
9.457858080E0,-7.426205635E0,1.455374622E1,7.009899139E0
9.477752924E0,-9.784165382E0,1.145172119E1,5.804255009E0
9.497637768E0,-1.078568363E1,6.214436531E0,4.005342960E0
9.517506778E0,-7.593047619E0,2.510621071E0,3.942493916E0
9.537432612E0,-8.186315894E-1,3.285578191E-1,3.979244471E0
9.557294903E0,3.376655579E0,-1.207707971E-1,-1.047989607E0
9.577194226E0,3.749220848E0,-2.506493330E0,-4.849872589E0
9.597100789E0,3.036579847E0,-6.542927742E0,-2.483923674E0
9.616984851E0,2.606958151E0,-6.165036201E0,-2.493510723E0
9.636860320E0,2.681058407E0,-4.480170250E0,-3.377787352E0
9.656744382E0,2.750365019E0,-4.482300758E0,-3.267935276E0
9.676647820E0,2.632590294E0,-4.931097031E0,-3.778581381E0
9.696538028E0,2.383126020E0,-5.621367931E0,-4.297150135E0
9.716460268E0,2.221610069E0,-6.346259117E0,-4.539157867E0
9.736320372E0,2.159826517E0,-6.861631870E0,-4.859526634E0
9.756208445E0,1.969549298E0,-7.437257290E0,-4.786491394E0
9.776100580E0,1.517024994E0,-7.712819576E0,-4.419252396E0
9.795976882E0,1.132742167E0,-7.201174736E0,-4.333434582E0
9.815872195E0,1.145524979E0,-6.296126366E0,-4.320651531E0
9.835771362E0,1.201982260E0,-5.501928806E0,-3.899551868E0
9.855673289E0,9.621717334E-1,-4.594816208E0,-3.274859190E0
9.875553757E0,8.657015562E-1,-3.437107563E0,-2.844238758E0
9.895424018E0,9.386700392E-1,-2.257029057E0,-2.457292795E0
9.915293862E0,9.541825056E-1,-1.083408594E0,-2.075606585E0
9.935227039E0,9.274850488E-1,-9.840089828E-2,-1.716955900E0
9.955090580E0,8.587775230E-1,3.876782358E-1,-1.386467338E0
9.974992091E0,6.977941990E-1,2.874797583E-1,-1.053848386E0
9.994875737E0,3.262941837E-1,-3.655080870E-2,-8.582449555E-1
1.001477912E1,1.232341453E-1,-2.439383566E-1,-8.422664404E-1
1.003466120E1,7.310161740E-2,-3.318866491E-1,-7.186328173E-1
1.005458313E1,-6.491263956E-2,-1.404775977E-1,-5.091813803E-1
1.007447730E1,-2.211024314E-1,3.413406014E-1,-3.822855055E-1
1.009435860E1,-3.026593328E-1,7.517216206E-1,-2.847501040E-1
1.011418860E1,-3.346163332E-1,9.159006476E-1,-1.557903290E-1
1.013412183E1,-1.565892547E-1,1.049121380E0,-1.136470512E-1
1.015400058E1,-1.531272428E-3,6.211640239E-1,-4.813521728E-2
1.017387845E1,-2.869471535E-2,-1.074553803E-1,3.994623839E-4
1.019374667E1,-7.023879886E-2,-3.776916862E-1,-1.025286783E-2
1.021364120E1,-9.533835202E-2,-2.647103965E-1,2.117150649E-2
1.023353876E1,-1.022623703E-1,1.264964230E-3,2.330197208E-2
1.025345636E1,-1.022623703E-1,2.123142630E-1,-1.198387123E-3
1.027333813E1,-1.134473160E-1,2.053902447E-1,-4.167724028E-2
1.029320845E1,-1.326215118E-1,-1.258306485E-2,-1.056578010E-1
1.031313121E1,-1.565892547E-1,-1.906101406E-1,-9.607070684E-2
1.033297714E1,-1.699712425E-1,-1.980667710E-1,-5.985277891E-2
1.035286370E1,-1.694386303E-1,-1.159772426E-1,-4.380770773E-2
1.037279970E1,-1.763626486E-1,-5.039883777E-2,-2.942706272E-2
1.039268048E1,-1.886128187E-1,-5.525896326E-2,-3.315537795E-2
1.041258068E1,-2.013956159E-1,-6.271559745E-2,-2.782921307E-2
1.043246839E1,-2.157762647E-1,-5.093145370E-2,-1.131810062E-2
1.045236225E1,-2.195045799E-1,-3.708342463E-2,3.062544856E-3
1.047221850E1,-2.253633589E-1,-3.335510939E-2,5.725627299E-3
1.049213694E1,-2.152436525E-1,-1.398118329E-3,1.051917579E-2
1.051202714E1,-1.992651522E-1,5.299534276E-2,5.053199083E-2
1.053191324E1,-1.795583367E-1,5.299534276E-2,1.203047559E-1
1.055180157E1,-1.603175700E-1,1.191729400E-2,1.832200736E-1
1.057168324E1,-1.549914032E-1,2.043915913E-2,2.226337045E-1
1.059156006E1,-1.651111245E-1,7.749570161E-2,2.525267899E-1
1.061144761E1,-1.603175700E-1,1.393457949E-1,2.850164175E-1
1.063136860E1,-1.256974936E-1,1.989988387E-1,2.988644540E-1
1.065126928E1,-8.308817446E-2,2.555227578E-1,2.930056453E-1
1.067112188E1,-5.852124095E-2,3.071865737E-1,2.866142690E-1
1.069102844E1,-3.455349803E-2,3.610474169E-1,2.871468663E-1
1.071090594E1,-1.218360290E-2,3.999284208E-1,2.855490148E-1
1.073081131E1,4.327509087E-3,4.101147056E-1,2.780923843E-1
1.075068990E1,2.197043039E-2,3.887434900E-1,2.882121205E-1
1.077058188E1,4.274247587E-2,3.557212651E-1,2.919404209E-1
1.079045626E1,5.179695413E-2,3.392101526E-1,2.876794934E-1
1.081040855E1,5.179695413E-2,3.429384530E-1,2.796902359E-1
1.083025574E1,6.298190355E-2,3.237642646E-1,2.898099720E-1
1.085015209E1,6.138405204E-2,3.141105771E-1,3.015275300E-1
1.087004105E1,4.806863889E-2,3.578517139E-1,3.068536818E-1
1.088992397E1,4.913387448E-2,3.866130114E-1,3.330184817E-1
1.090979975E1,5.339480564E-2,4.041893482E-1,3.862801194E-1
1.092969032E1,5.392742157E-2,4.463326335E-1,4.113130867E-1
1.094956990E1,4.806863889E-2,4.660394490E-1,4.199015498E-1
1.096948766E1,3.102491237E-2,4.505935609E-1,4.454671443E-1
1.098942459E1,9.121057577E-3,4.287562966E-1,4.545216262E-1
1.100924496E1,4.327509087E-3,4.207670391E-1,4.316191077E-1
1.102915464E1,-6.324821152E-3,3.903413117E-1,3.825518191E-1
1.104905204E1,-4.094489291E-2,3.290904164E-1,3.351489305E-1
1.106893147E1,-7.616416365E-2,2.005966902E-1,2.796902359E-1
1.108880141E1,-1.118494645E-1,6.591129117E-3,2.162422985E-1
1.110870845E1,-1.694386303E-1,-1.725011766E-1,1.517957002E-1
1.112859068E1,-2.418744713E-1,-3.659741282E-1,8.302159607E-2
1.114849157E1,-3.410077095E-1,-6.255580783E-1,5.745600536E-2
1.116838214E1,-4.710993171E-1,-7.875400782E-1,2.489982173E-2
1.118827157E1,-6.544525623E-1,-7.380067706E-1,3.928046674E-2
1.120813954E1,-8.218272924E-1,-2.977326214E-1,1.976007223E-1
1.122805537E1,-8.670997024E-1,8.786175251E-1,3.649754524E-1
1.124793970E1,-8.105757833E-1,2.307028532E0,6.533207297E-1
1.126781225E1,-8.772193789E-1,3.268001795E0,9.262201190E-1
1.128773131E1,-1.012637138E0,3.942826986E0,1.090399146E0
1.130760777E1,-1.120292306E0,4.483299255E0,1.252980351E0
1.132748553E1,-1.298851967E0,4.861190796E0,1.404842615E0
1.134740194E1,-1.432072639E0,5.303528786E0,1.658567786E0
1.136726011E1,-1.529075384E0,6.050789833E0,1.901640654E0
1.138715803E1,-1.672482371E0,6.944120884E0,2.139320850E0
1.140705287E1,-2.181996584E0,7.572541714E0,2.516146898E0
1.142692647E1,-2.909018278E0,7.900833130E0,3.032119274E0
1.144684173E1,-3.912667513E0,8.064479828E0,3.709540844E0
1.146670553E1,-5.204129219E0,8.172667503E0,4.125314713E0
1.148660787E1,-6.537667751E0,7.929128647E0,3.668529272E0
1.150652761E1,-8.042376518E0,5.994332314E0,2.501233816E0
1.152644615E1,-8.796028137E0,2.017085314E0,2.120679140E0
1.154629485E1,-6.930006504E0,3.669061959E-1,2.456493855E0
1.156616756E1,-2.308892488E0,1.169093251E0,2.678195477E0
1.158607657E1,1.251049638E0,-1.052982807E0,1.354776621E0
1.160592714E1,2.192848682E0,-4.038364887E0,-2.672070503E0
1.162585141E1,2.596838474E0,-6.086142540E0,-4.666519642E0
1.164573938E1,2.940109730E0,-6.527947903E0,-4.667052269E0
1.166559886E1,2.982785702E0,-5.878221989E0,-5.082293510E0
1.168552308E1,2.872933388E0,-6.199656010E0,-5.067379951E0
1.170541485E1,2.740245342E0,-7.118020058E0,-4.881896496E0
1.172530287E1,2.484922409E0,-7.508694649E0,-5.085488796E0
1.174518496E1,2.209359884E0,-7.661688328E0,-5.062053680E0
1.176506365E1,2.090519905E0,-7.604099274E0,-4.778501987E0
1.178496470E1,2.052637577E0,-7.075876713E0,-4.614323139E0
1.180485720E1,1.797913671E0,-6.372889519E0,-4.388294220E0
1.182472053E1,1.651310921E0,-5.536615372E0,-4.034969330E0
1.184462766E1,1.789391756E0,-4.514324188E0,-3.630380630E0
1.186455183E1,1.737128735E0,-3.319865227E0,-3.252489328E0
1.188444037E1,1.459435821E0,-2.051838636E0,-2.893772125E0
1.190430970E1,1.298985124E0,-1.006645203E0,-2.481260538E0
1.192417037E1,1.308572173E0,-2.918738425E-1,-2.036192894E0
1.194408194E1,1.197721362E0,2.539249361E-1,-1.642855644E0
1.196395058E1,9.509868026E-1,8.561810255E-1,-1.445121765E0
1.198384001E1,7.931991220E-1,1.128547788E0,-1.208972931E0
1.200374594E1,6.173025370E-1,8.663007617E-1,-1.010173798E0
1.202362532E1,4.025249183E-1,4.697677493E-1,-8.156356215E-1
1.204350506E1,1.972678453E-1,4.628437459E-1,-6.333476305E-1
1.206343527E1,8.055824786E-2,7.352105379E-1,-4.739621282E-1
1.208327678E1,-3.828181326E-2,8.802153468E-1,-2.629128397E-1
1.210317626E1,-1.251648813E-1,7.767546177E-1,-1.136470512E-1
1.212307360E1,-1.902106702E-1,4.884093404E-1,-5.133091658E-2
1.214294865E1,-8.255556226E-2,2.181730419E-1,-5.026568472E-2
1.216283865E1,1.365495622E-1,3.854811937E-2,-5.459319334E-3
1.218275756E1,1.791588813E-1,-2.790910602E-1,5.958647281E-2
1.220264412E1,1.381474137E-1,-3.478651643E-1,9.207607806E-2
1.222254610E1,8.109086752E-2,-1.975341439E-1,7.023879886E-2
1.224248037E1,3.368799388E-2,-9.413997084E-2,3.981308267E-2
1.226229589E1,2.090519853E-2,-5.039883777E-2,-2.796236658E-3
1.228217131E1,2.942706272E-2,-2.217016183E-2,-1.025286783E-2
1.230207626E1,1.125152409E-2,-9.680305421E-2,-1.664426550E-2
1.232195626E1,-1.271621883E-2,-1.831535101E-1,-3.049229458E-2
1.234184720E1,-2.869471535E-2,-1.714359373E-1,-4.114462435E-2
1.236174183E1,-4.094489291E-2,-1.095858440E-1,-5.772231519E-2
1.238165084E1,-5.053199083E-2,-7.443315536E-2,-5.878754705E-2
1.240155970E1,-4.627105966E-2,-8.402025700E-2,-5.772231519E-2
1.242141865E1,-4.893414304E-2,-1.175750941E-1,-7.210296392E-2
1.244132220E1,-4.201012850E-2,-1.650445461E-1,-6.411371380E-2
1.246119605E1,-5.053199083E-2,-1.597183794E-1,-5.772231519E-2
1.248110110E1,-6.810833514E-2,-1.394123733E-1,-6.038539857E-2
1.250099173E1,-8.415340632E-2,-1.639793068E-1,-5.239614844E-2
1.252088126E1,-1.022623703E-1,-1.954036802E-1,-2.143781446E-2
1.254077694E1,-1.240996495E-1,-1.991319954E-1,8.388710208E-3
1.256065094E1,-1.320888996E-1,-1.458703429E-1,3.608476743E-2
1.258056058E1,-1.368824393E-1,-8.828118443E-2,6.864095479E-2
1.260047121E1,-1.486000121E-1,-8.402025700E-2,9.154346585E-2
1.262034433E1,-1.774278730E-1,-1.069227681E-1,1.176416725E-1
1.264019673E1,-2.189719677E-1,-9.573781490E-2,1.336201727E-1
1.266011032E1,-2.632457018E-1,-3.974650800E-2,1.235004514E-1
1.267997855E1,-2.866808474E-1,-5.659050308E-3,1.075219586E-1
1.269988120E1,-2.930722237E-1,-6.005251035E-2,1.357506365E-1
1.271976667E1,-2.925396264E-1,-1.394123733E-1,1.810896099E-1
1.273964865E1,-2.621804774E-1,-1.629140824E-1,2.018616647E-1
1.275956360E1,-2.242981344E-1,-7.922670245E-2,1.928071827E-1
1.277946214E1,-1.854171306E-1,4.926702753E-2,1.757634431E-1
1.279935194E1,-1.501978636E-1,1.280942708E-1,1.475347728E-1
1.281923996E1,-1.272953451E-1,1.542590559E-1,1.069893390E-1
1.283911272E1,-1.059906855E-1,2.085859478E-1,6.544525176E-2
1.285901220E1,-9.107742459E-2,2.890776098E-1,2.756290510E-2
1.287891204E1,-8.947957307E-2,3.381448984E-1,-3.861469682E-3
1.289875944E1,-8.042509109E-2,2.874797583E-1,-1.131810062E-2
1.291866527E1,-6.597787142E-2,1.862160414E-1,2.170412242E-2
1.293854011E1,-4.627105966E-2,1.046591476E-1,5.745600536E-2
1.295847829E1,-2.283593267E-2,7.057169080E-2,8.142375201E-2
1.297837371E1,-1.058575325E-2,8.548495173E-2,1.048588753E-1
1.299821720E1,-1.324883569E-2,1.217028722E-1,1.181742921E-1
1.301813657E1,-3.029256500E-2,1.441393495E-1,1.282940060E-1
1.303801287E1,-5.798862129E-2,1.633135378E-1,1.304244697E-1
1.305789970E1,-6.917356700E-2,1.862160414E-1,1.298918575E-1
1.307777902E1,-8.415340632E-2,1.883465201E-1,1.203047559E-1
1.309768319E1,-1.278279573E-1,1.617156863E-1,9.740224481E-2
1.311758506E1,-1.918085217E-1,1.398784071E-1,6.331478804E-2
1.313744631E1,-2.541246414E-1,8.335448056E-2,3.874785081E-2
1.315737782E1,-3.266270757E-1,-3.548557684E-2,-2.263620263E-3
1.317725610E1,-4.604469836E-1,-1.703707129E-1,-3.528584540E-2
1.319713350E1,-6.501916051E-1,-2.641777992E-1,-6.784202904E-2
1.321702636E1,-8.884043694E-1,-4.262263775E-1,-6.358109415E-2
1.323688110E1,-1.232208252E0,-6.857437491E-1,-6.657706108E-4
1.325677787E1,-1.586131930E0,-8.429988027E-1,8.248898387E-2
1.327666792E1,-1.851042151E0,-7.374741435E-1,1.933397949E-1
1.329658464E1,-2.037058353E0,-5.029231310E-1,3.484643400E-1
1.331648584E1,-2.132463455E0,-1.420754492E-1,5.856118798E-1
1.333638339E1,-2.106831074E0,3.456015289E-1,1.005113959E0
1.335626048E1,-2.037058353E0,9.457271695E-1,1.597250342E0
1.337614011E1,-1.918684363E0,1.867819548E0,2.275271177E0
1.339602542E1,-1.763626456E0,3.148096561E0,3.022532225E0
1.341589292E1,-1.683667421E0,4.472047806E0,3.810804605E0
1.343579355E1,-1.731070280E0,5.566841125E0,4.595947742E0
1.345570235E1,-1.940588236E0,6.451650620E0,5.392209530E0
1.347559902E1,-2.228933573E0,7.614618301E0,6.160309315E0
1.349547167E1,-2.598303080E0,9.347419739E0,6.815361023E0
1.351539459E1,-3.471860647E0,1.105145931E1,7.482662678E0
1.353524240E1,-5.029297829E0,1.238073730E1,7.745442390E0
1.355515282E1,-7.503501415E0,1.285456657E1,7.201774120E0
1.357502298E1,-1.004960823E1,1.076730919E1,6.432076931E0
1.359490782E1,-1.102183342E1,5.211319447E0,6.118165970E0
1.361479563E1,-7.623939514E0,-5.349466801E-1,6.469426632E0
1.363471923E1,2.894770801E-1,-2.728194952E0,4.382701397E0
1.365460631E1,4.490090370E0,-1.902040124E0,-2.360822678E0
1.367450850E1,3.984770536E0,-3.863533497E0,-7.672141075E0
1.369439626E1,3.449157953E0,-8.613607407E0,-5.585948944E0
1.371428944E1,2.648568869E0,-9.789424896E0,-3.142703772E0
1.373416287E1,2.145379305E0,-6.688930988E0,-4.164462090E0
1.375404126E1,2.592577457E0,-4.527639866E0,-5.459119320E0
1.377392084E1,3.403286457E0,-5.054264545E0,-5.176100254E0
1.379382475E1,3.320131540E0,-6.712898731E0,-4.404871941E0
1.381370683E1,2.907087564E0,-8.092841148E0,-4.148483276E0
1.383360376E1,2.638448954E0,-8.594965935E0,-4.410197735E0
1.385348688E1,2.468943834E0,-8.440906525E0,-4.719847679E0
1.387343813E1,2.146444559E0,-8.074732780E0,-4.786491394E0
1.389327834E1,1.724345922E0,-7.398376465E0,-4.532233715E0
1.391317370E1,1.449316144E0,-6.196460724E0,-4.243355751E0
1.393307652E1,1.484468818E0,-4.824506760E0,-3.937434196E0
1.395292204E1,1.545786262E0,-3.705745935E0,-3.490768671E0
1.397280902E1,1.325149894E0,-2.423338652E0,-3.100094318E0
1.399273069E1,1.214232445E0,-1.009840965E0,-2.910815716E0
1.401260782E1,1.281408787E0,-2.641777992E-1,-2.620872736E0
1.403252110E1,1.147122860E0,-1.324883550E-1,-2.197708845E0
1.405242933E1,7.329468727E-1,1.057243794E-1,-1.703041315E0
1.407229496E1,3.902747631E-1,7.837451696E-1,-1.322486758E0
1.409215636E1,1.429409534E-1,1.345522404E0,-9.766189456E-1
1.411204261E1,-5.372769013E-2,1.384936094E0,-5.512580872E-1
1.413194016E1,-2.184393406E-1,1.358837843E0,-2.010627389E-1
1.415182855E1,-2.443378232E-2,2.030400753E0,-6.571156532E-2
1.417170636E1,4.648410678E-1,2.305963278E0,1.224352196E-1
1.419160032E1,4.552539587E-1,8.898024559E-1,2.157096863E-1
1.421151011E1,3.491967022E-1,-4.485962689E-1,2.370809317E-1
1.423138115E1,2.356828004E-1,-8.387378454E-1,1.896114796E-1
1.425125751E1,1.285603046E-1,-5.264248252E-1,1.277613789E-1
1.427114678E1,4.647079110E-2,-1.159772426E-1,1.587197185E-1
1.429106339E1,1.231675688E-2,1.643787771E-1,2.370809317E-1
1.431096141E1,-2.017285116E-2,3.424058259E-1,2.599834204E-1
1.433083110E1,-7.669677585E-2,3.541234136E-1,2.114487588E-1
1.435071183E1,-1.395455301E-1,1.931400597E-1,1.080545783E-1
1.437062287E1,-1.981999129E-1,-2.536586113E-2,9.320789250E-4
1.439057798E1,-1.763626486E-1,-6.324820966E-2,-3.794892505E-2
1.441044016E1,-1.603175700E-1,-4.593817517E-3,-3.049229458E-2
1.443029303E1,-1.779604852E-1,-2.856156044E-2,-4.061200842E-2
1.445017694E1,-2.152436525E-1,-1.447385401E-1,-4.706998542E-2
1.447007860E1,-2.381461561E-1,-2.140452564E-1,-7.636389136E-2
1.448997808E1,-2.285590619E-1,-2.193714231E-1,-9.553808719E-2
1.450986626E1,-2.056565434E-1,-2.294911444E-1,-8.062482625E-2
1.452972813E1,-1.971346885E-1,-2.625799477E-1,-6.464632601E-2
1.454962667E1,-1.811561882E-1,-2.908086181E-1,-6.358109415E-2
1.456951095E1,-1.635132730E-1,-2.721670270E-1,-7.210296392E-2
1.458942027E1,-1.470021605E-1,-2.103169411E-1,-7.210296392E-2
1.460928042E1,-1.272953451E-1,-1.367492825E-1,-6.784202904E-2
1.462917209E1,-9.906667471E-2,-1.111836955E-1,-5.612446368E-2
1.464908902E1,-6.651048362E-2,-1.287600398E-1,-2.516612969E-2
1.466895319E1,-4.573844373E-2,-1.229012609E-1,5.193010904E-3
1.468884657E1,-3.508611396E-2,-1.127815470E-1,2.489982173E-2
1.470873511E1,-2.816209756E-2,-1.090532318E-1,4.726971686E-2
1.472864662E1,-1.644453406E-2,-8.029194176E-2,6.171693653E-2
1.474854287E1,-6.324821152E-3,-5.792204663E-2,7.503235340E-2
1.476841985E1,-1.591191813E-2,-2.909417637E-2,9.260869771E-2
1.478831016E1,-1.910761744E-2,1.617822610E-2,1.005979404E-1
1.480818636E1,-3.402087837E-2,4.766917601E-2,1.096524224E-1
1.482808100E1,-4.946675897E-2,9.666989744E-2,1.309570819E-1
1.484798110E1,-7.722939551E-2,1.121157780E-1,1.416759938E-1
1.486786740E1,-1.150451675E-1,8.335448056E-2,1.432738453E-1
1.488776912E1,-1.470021605E-1,9.240896255E-2,1.555240154E-1
1.490764162E1,-1.731669456E-1,1.264964193E-1,1.645784974E-1
1.492754386E1,-1.939389855E-1,1.345522404E-1,1.757634431E-1
1.494743579E1,-2.152436525E-1,1.206376404E-1,1.858831644E-1
1.496730813E1,-2.253633589E-1,9.081111848E-2,1.938724071E-1
1.498718855E1,-2.280264497E-1,3.801550344E-2,1.981333494E-1
1.500709615E1,-2.264285982E-1,7.123745978E-3,1.858831644E-1
1.502699214E1,-2.434723228E-1,1.264964230E-3,1.672415882E-1
1.504687949E1,-2.856155932E-1,-3.442034125E-2,1.384137124E-1
1.506678131E1,-3.372794092E-1,-1.351514459E-1,8.674991131E-2
1.508666850E1,-3.788900673E-1,-2.679060996E-1,1.691057347E-2
1.510658115E1,-4.417388141E-1,-3.232982159E-1,-3.635107726E-2
1.512644001E1,-5.862110257E-1,-2.769605815E-1,-9.340762347E-2
1.514632845E1,-8.095105290E-1,-2.529928386E-1,-1.536598653E-1
1.516619912E1,-1.112303019E0,-3.089175820E-1,-1.653774232E-1
1.518611240E1,-1.420887709E0,-1.213034093E-1,-1.462032348E-1
1.520601110E1,-1.582403660E0,6.051855087E-1,-3.688369319E-2
1.522589194E1,-1.634067416E0,1.799644589E0,2.647769749E-1
1.524577433E1,-1.627143502E0,3.150759459E0,7.135729790E-1
1.526566871E1,-1.574414372E0,4.270585537E0,1.210304499E0
1.528556631E1,-1.512031674E0,4.879299641E0,1.714559078E0
1.530542298E1,-1.461899161E0,5.173503876E0,2.153701544E0
1.532533381E1,-1.552510500E0,5.676626682E0,2.609954119E0
1.534522235E1,-1.786528945E0,6.585403919E0,3.120600224E0
1.536512235E1,-2.067950249E0,7.340121269E0,3.670659781E0
1.538501032E1,-2.609488010E0,7.501637459E0,4.184434891E0
1.540490464E1,-3.506547451E0,7.630130768E0,4.583098412E0
1.542477553E1,-4.925371170E0,8.457817078E0,4.918380737E0
1.544466782E1,-6.678411961E0,9.558468819E0,5.210986614E0
1.546456626E1,-8.330721855E0,9.456140518E0,5.135821342E0
1.548449199E1,-9.891886711E0,6.718158245E0,4.219121933E0
1.550434792E1,-9.885495186E0,2.286256313E0,3.758075476E0
1.552423449E1,-5.843735218E0,-4.411396384E-1,4.218589306E0
1.554412720E1,1.392126381E-1,-1.991586328E0,2.854092121E0
1.556401376E1,3.163941860E0,-1.587064028E0,-2.433791161E0
1.558388944E1,3.441634655E0,-2.812414885E0,-4.597812176E0
1.560380235E1,2.992372751E0,-5.311118603E0,-2.544708490E0
1.562369147E1,2.761549950E0,-4.616120815E0,-2.479662657E0
1.564357345E1,2.998764038E0,-3.819792509E0,-3.213075638E0
1.566346709E1,3.198095798E0,-4.708862782E0,-3.675187111E0
1.568341938E1,3.101093054E0,-6.012042046E0,-4.290758610E0
1.570324600E1,2.999296665E0,-7.402104378E0,-4.090361595E0
1.572311360E1,2.980655193E0,-8.174931526E0,-3.717796326E0
1.574304194E1,2.671471357E0,-8.100297928E0,-4.018392086E0
1.576291839E1,2.210957766E0,-7.980925560E0,-4.416589260E0
1.578277928E1,1.636397600E0,-7.829063416E0,-4.474644661E0
1.580268178E1,1.227614522E0,-7.275807858E0,-4.347815037E0
1.582258287E1,1.181210279E0,-6.489599228E0,-3.986434937E0
1.584255105E1,1.212102056E0,-5.735947132E0,-3.414005280E0
1.586245620E1,9.040499330E-1,-4.772843361E0,-2.957752705E0
1.588224350E1,6.189003587E-1,-3.365670204E0,-2.778660297E0
1.590213329E1,7.868077159E-1,-1.986260176E0,-2.659287691E0
1.592203923E1,1.038935065E0,-1.233672976E0,-2.199839354E0
1.594192235E1,8.768864870E-1,-8.302159905E-1,-1.655105829E0
1.596181746E1,5.085821748E-1,-3.750286102E-1,-1.527211308E0
1.598170553E1,2.244978547E-1,-6.591129303E-2,-1.452045798E0
1.600157792E1,1.157775149E-1,2.832188308E-1,-1.181809425E0
1.602145334E1,2.191716880E-1,9.451946020E-1,-9.968583584E-1
1.604138496E1,4.243622124E-1,2.091718197E0,-7.106435895E-1
1.606123501E1,4.115794003E-1,2.768607140E0,-1.904104054E-1
1.608114355E1,1.211036816E-1,1.987258792E0,-6.304848194E-2
1.610103808E1,9.919982404E-2,8.396699429E-1,-6.624417752E-2
1.612090949E1,8.641702682E-2,3.641765565E-2,9.314130992E-2
1.614078688E1,7.523208112E-2,-2.643109486E-2,1.906767040E-1
1.616070162E1,5.392742157E-2,2.438052148E-1,1.512630880E-1
1.618056704E1,6.657706399E-5,4.063198268E-1,7.077141851E-2
1.620048006E1,-7.183665037E-2,4.106473327E-1,-1.238333434E-2
1.622038412E1,-1.145125479E-1,3.514603078E-1,-6.145063043E-2
1.624024865E1,-1.139799356E-1,2.933385372E-1,-1.051251814E-1
1.626015964E1,-9.800143540E-2,2.613815665E-1,-1.338864714E-1
1.628002386E1,-9.480573982E-2,2.347507328E-1,-1.253646165E-1
1.629993855E1,-9.001219273E-2,1.340196282E-1,-8.115743846E-2
1.631980522E1,-7.616416365E-2,-4.240959138E-2,-5.505923182E-2
1.633971329E1,-6.384740770E-2,-1.506638974E-1,-5.559184775E-2
1.635959006E1,-6.171693653E-2,-1.111836955E-1,-6.997249275E-2
1.637947522E1,-7.183665037E-2,4.460663069E-3,-8.062482625E-2
1.639944329E1,-8.468602598E-2,1.244991086E-2,-6.730940938E-2
1.641925709E1,-9.267527610E-2,-7.443315536E-2,-4.274247587E-2
1.643917704E1,-1.139799356E-1,-8.188978583E-2,-2.303566411E-2
1.645907902E1,-1.358172148E-1,2.203700878E-2,-1.185071748E-2
1.647893589E1,-1.368824393E-1,1.270290315E-1,4.660394508E-3
1.649883813E1,-1.411433816E-1,1.894117445E-1,3.768261895E-2
1.651871532E1,-1.624480337E-1,2.592510879E-1,6.171693653E-2
1.653861735E1,-1.859497428E-1,2.960016131E-1,8.568467945E-2
1.655850620E1,-2.013956159E-1,3.055887222E-1,1.059241071E-1
1.657840907E1,-1.896780580E-1,3.977979720E-1,1.005979404E-1
1.659830162E1,-1.272953451E-1,4.569849670E-1,9.473916143E-2
1.661818417E1,-9.107742459E-2,3.658409715E-1,1.187069044E-1
1.663807053E1,-1.161103994E-1,2.576532364E-1,1.091198102E-1
1.665795568E1,-8.788172156E-2,2.736317217E-1,7.929328084E-2
1.667784126E1,-8.308817446E-2,2.416747361E-1,7.769543678E-2
1.669773162E1,-7.290188223E-2,1.792920381E-1,7.716281712E-2
1.671761850E1,-7.722939551E-2,9.560466558E-2,9.846747667E-2
1.673747944E1,-7.722939551E-2,5.193011090E-2,1.000653282E-1
1.675742423E1,-6.757572293E-2,7.962616533E-2,9.207607806E-2
1.677729162E1,-7.563154399E-2,6.577813625E-2,8.941299468E-2
1.679718787E1,-9.959928691E-2,1.511299331E-2,1.117828935E-1
1.681706157E1,-8.841434121E-2,-4.593817517E-3,1.427412182E-1
1.683695787E1,-8.255556226E-2,7.003907114E-2,1.608501822E-1
1.685686110E1,-8.628387749E-2,1.452045739E-1,1.512630880E-1
1.687672204E1,-9.587097168E-2,1.531938314E-1,1.608501822E-1
1.689661720E1,-1.123820841E-1,1.393457949E-1,1.880136281E-1
1.691650214E1,-1.097190008E-1,1.366827190E-1,1.960028708E-1
1.693644084E1,-9.427312016E-2,1.846182048E-1,1.784265339E-1
1.695630553E1,-8.149032295E-2,2.576532364E-1,1.731003672E-1
1.697618365E1,-6.651048362E-2,2.757622004E-1,1.645784974E-1
1.699609423E1,-4.147751257E-2,2.954690158E-1,1.565892547E-1
1.701595391E1,-2.922733128E-2,3.466667831E-1,1.603175700E-1
1.703586449E1,-2.922733128E-2,3.690366745E-1,1.672415882E-1
1.705574902E1,-4.041227698E-2,3.701018989E-1,1.752308309E-1
1.707563839E1,-5.106460676E-2,3.285578191E-1,1.805569977E-1
1.709553996E1,-5.852124095E-2,2.438052148E-1,1.826874614E-1
1.711541511E1,-9.746882319E-2,1.147788614E-1,1.597849578E-1
1.713529042E1,-1.267627329E-1,-4.507267103E-2,1.378811002E-1
1.715519475E1,-1.699712425E-1,-1.464029700E-1,1.165764406E-1
1.717508990E1,-1.859497428E-1,-1.480008066E-1,8.142375201E-2
1.719497730E1,-1.928737611E-1,-1.404775977E-1,4.673709720E-2
1.721486808E1,-2.525267899E-1,-2.599168718E-1,2.330197208E-2
1.723474272E1,-3.783574402E-1,-5.429359674E-1,-2.197043039E-2
1.725465131E1,-5.057193637E-1,-7.923336625E-1,-8.115743846E-2
1.727453194E1,-6.422023773E-1,-9.970580935E-1,-1.093861163E-1
1.729446334E1,-8.165011406E-1,-1.136137605E0,-8.222267032E-2
1.731431563E1,-1.049920321E0,-1.095126152E0,7.130403817E-2
1.733421308E1,-1.127748847E0,-3.275591433E-1,3.207017183E-1
1.735410069E1,-1.021691680E0,1.613095641E0,5.776225924E-1
1.737397605E1,-9.891354442E-1,4.066460609E0,9.822114110E-1
1.739387261E1,-1.016898036E0,6.347723484E0,1.513030410E0
1.741374240E1,-1.194925189E0,8.209485054E0,2.146244764E0
1.743366746E1,-1.589327693E0,9.165131569E0,2.985182285E0
1.745354938E1,-2.296109676E0,9.267460823E0,3.779912710E0
1.747346803E1,-3.345564127E0,9.098487854E0,4.282503128E0
1.749331167E1,-4.795878887E0,9.304810524E0,4.614057064E0
1.751322761E1,-6.673618317E0,1.029188156E1,4.565522194E0
1.753312094E1,-8.804018021E0,1.078495216E1,3.985635996E0
1.755299292E1,-1.090725422E1,8.279856682E0,2.977725744E0
1.757287678E1,-1.223706436E1,2.466946602E0,2.124940157E0
1.759277694E1,-9.715457916E0,-1.203846455E0,2.859951019E0
1.761266516E1,-2.498637199E0,-2.270344496E0,3.698355913E0
1.763257860E1,3.544562817E0,-3.436574936E0,2.663748264E-1
1.765244959E1,3.729513884E0,-4.011135101E0,-6.225021839E0
1.767234803E1,3.979976892E0,-7.350906849E0,-5.278429508E0
1.769222313E1,3.741764069E0,-7.518281460E0,-4.505070210E0
1.771211803E1,3.304685831E0,-5.521701813E0,-5.916969776E0
1.773198574E1,3.064808607E0,-6.216700077E0,-5.793869019E0
1.775189246E1,2.667210340E0,-7.316286564E0,-5.601994038E0
1.777178277E1,2.326069355E0,-7.609958172E0,-5.583285809E0
1.779164355E1,2.065486908E0,-7.697373867E0,-5.374366760E0
1.781154782E1,1.979668975E0,-7.688319206E0,-5.138817310E0
1.783145808E1,1.905568719E0,-7.389854431E0,-4.900005341E0
1.785134365E1,1.636930227E0,-6.863762379E0,-4.548744678E0
1.787123819E1,1.259571433E0,-5.987541676E0,-4.273715019E0
1.789113558E1,1.011705041E0,-4.756798267E0,-4.015196323E0
1.791100136E1,9.109739661E-1,-3.323593616E0,-3.595227957E0
1.793088652E1,8.421998620E-1,-1.675544977E0,-3.073396921E0
1.795076261E1,7.233598232E-1,1.334870160E-1,-2.721071243E0
1.797068339E1,6.930006742E-1,1.300183535E0,-2.350103855E0
1.799059459E1,7.175010443E-1,1.381207824E0,-1.812360883E0
1.801047818E1,6.524552107E-1,9.228246808E-1,-1.308638811E0
1.803035022E1,5.069843531E-1,6.504579186E-1,-8.630384803E-1
1.805023615E1,3.539902568E-1,6.808170676E-1,-5.485950112E-1
1.807013324E1,3.390769958E-1,9.435967207E-1,-2.922067344E-1
1.809001188E1,5.693004727E-1,1.635998249E0,-7.955959439E-2
1.810988391E1,6.098458767E-1,1.392925382E0,9.320789250E-4
1.812978766E1,5.320172906E-1,4.671046734E-1,-9.926640242E-2
1.814965511E1,4.270252883E-1,-9.733566642E-2,-1.387466043E-1
1.816954345E1,3.444031477E-1,-5.845466256E-2,-1.541924775E-1
1.818944454E1,2.777595222E-1,2.917406857E-1,-1.770949960E-1
1.820934178E1,2.090519816E-1,4.511261880E-1,-1.856168509E-1
1.822922699E1,1.376147866E-1,2.635120153E-1,-1.824211627E-1
1.824911470E1,5.925358832E-2,5.086487532E-2,-1.723014414E-1
1.826899011E1,8.055824786E-3,6.684337556E-2,-1.424749196E-1
1.828889365E1,-4.726971500E-3,1.505307406E-1,-7.849435508E-2
1.830878792E1,1.284937374E-2,1.057243794E-1,-3.688369319E-2
1.832866949E1,2.516612969E-2,-3.761604056E-2,2.649767138E-2
1.834856397E1,3.049229458E-2,-2.294911444E-1,8.142375201E-2
1.836846808E1,1.817553863E-2,-3.259612918E-1,1.523283273E-1
1.838838110E1,1.125152409E-2,-3.046566546E-1,2.210358530E-1
1.840827777E1,-7.922670804E-3,-2.471340597E-1,2.701031566E-1
1.842813777E1,-3.668396175E-2,-2.183061987E-1,3.079189062E-1
1.844803298E1,-4.307536036E-2,-2.023276985E-1,3.473991156E-1
1.846791756E1,-6.857437547E-3,-2.129800320E-1,4.011933804E-1
1.848778501E1,3.528584540E-2,-2.402100414E-1,4.150414169E-1
1.850769516E1,6.298190355E-2,-2.780258060E-1,3.671059310E-1
1.852757115E1,1.381474137E-1,-2.508623898E-1,3.238974214E-1
1.854747074E1,1.962026060E-1,-1.693054736E-1,3.036579788E-1
1.856738246E1,2.170412242E-1,-1.042596847E-1,2.951361239E-1
1.858726798E1,1.754305661E-1,-9.041165560E-2,2.839511633E-1
1.860715402E1,1.349517107E-1,-5.366111174E-2,2.695705295E-1
1.862706131E1,1.039933711E-1,1.617822610E-2,2.594508231E-1
1.864693324E1,7.097115368E-2,-2.270277962E-2,2.408092469E-1
1.866681199E1,6.085143611E-2,-1.458703429E-1,2.002638131E-1
1.868672444E1,9.440627694E-2,-1.778273433E-1,1.624480337E-1
1.870659376E1,1.179079786E-1,-9.200949967E-2,1.304244697E-1
1.872652298E1,9.760197252E-2,-7.256899960E-3,9.260869771E-2
1.874641720E1,5.978620425E-2,-1.524614729E-2,5.159722641E-2
1.876628417E1,8.588441648E-3,-9.946613014E-2,3.182383627E-2
1.878614194E1,-3.082518093E-2,-8.987903595E-2,4.034570232E-2
1.880606001E1,-9.001219273E-2,3.002625518E-2,7.343450189E-2
1.882594970E1,-1.886128187E-1,1.979336143E-1,9.633701295E-2
1.884582324E1,-2.882786989E-1,3.999284208E-1,1.187069044E-1
1.886573110E1,-3.735639155E-1,5.912709236E-1,1.346853971E-1
1.888561610E1,-4.113796651E-1,7.250908017E-1,1.144459695E-1
1.890548537E1,-4.193689227E-1,7.682327628E-1,6.171693653E-2
1.892541454E1,-4.540555775E-1,6.861432195E-1,1.997311832E-3
1.894527949E1,-4.892082810E-1,4.948007464E-1,-5.772231519E-2
1.896515891E1,-4.881430268E-1,2.890776098E-1,-8.595099300E-2
1.898505459E1,-4.641752839E-1,1.499981284E-1,-9.287500381E-2
1.900495928E1,-4.183036983E-1,5.938674137E-2,-9.713593870E-2
1.902483959E1,-3.436708152E-1,3.908073530E-2,-8.808145672E-2
1.904470615E1,-2.685718834E-1,8.495233208E-2,-7.157034427E-2
1.906460605E1,-2.093848735E-1,1.030612960E-1,-5.665707961E-2
1.908452944E1,-1.294258088E-1,5.352795869E-2,-5.186353251E-2
1.910444449E1,-6.597787142E-2,-8.135717362E-2,-5.079830065E-2
1.912426444E1,9.121057577E-3,-2.636451721E-1,-4.327509180E-2
1.914417475E1,7.629731297E-2,-4.064529836E-1,-2.942706272E-2
1.916407490E1,1.418757290E-1,-4.565854967E-1,-1.078548469E-2
1.918396459E1,1.690391600E-1,-4.619116783E-1,6.790860556E-3
1.920383126E1,1.557237506E-1,-4.709661603E-1,1.211702544E-2
1.922374412E1,1.221689135E-1,-4.778901637E-1,2.063889056E-2
1.924361834E1,5.605788901E-2,-5.440011621E-1,1.904104091E-2
1.926350324E1,-4.946675897E-2,-7.246913314E-1,1.318225823E-2
1.928343022E1,-1.683733910E-1,-8.936639428E-1,3.994623839E-4
1.930329303E1,-2.834851444E-1,-9.197621346E-1,-2.516612969E-2
1.932317173E1,-4.230972528E-1,-8.515206575E-1,-2.889444493E-2
1.934309808E1,-6.075156927E-1,-7.912684083E-1,1.158440951E-2
1.936293694E1,-8.420667052E-1,-7.396045923E-1,8.035851270E-2
1.938285870E1,-1.103781104E0,-6.282211542E-1,1.890788674E-1
1.940273126E1,-1.358505011E0,-4.027246535E-1,3.628450036E-1
1.942264350E1,-1.593055964E0,2.651098669E-1,6.378748417E-1
1.944257042E1,-1.603175759E0,1.697249055E0,1.082409859E0
1.946246944E1,-1.352113605E0,3.733308792E0,1.688394308E0
1.948228652E1,-1.170890808E0,5.925558567E0,2.255497694E0
1.950218735E1,-1.107509494E0,7.808091640E0,2.841841936E0
1.952210131E1,-1.278612494E0,9.066531181E0,3.608277082E0
1.954195209E1,-1.811029315E0,9.715191841E0,4.436562538E0
1.956186412E1,-2.662217140E0,9.965188026E0,5.108657837E0
1.958174089E1,-4.129575729E0,1.031591606E1,5.445537567E0
1.960162449E1,-6.012707710E0,1.125611782E1,5.275499821E0
1.962155022E1,-8.219338417E0,1.147994995E1,4.684961319E0
1.964142324E1,-1.014448071E1,7.744709969E0,4.291025162E0
1.966128371E1,-1.090725422E1,8.710942864E-1,4.089562893E0
1.968118490E1,-8.489507675E0,-2.379131317E0,4.211598396E0
1.970109944E1,-2.171876907E0,-1.266761780E0,3.551220655E0
1.972098881E1,2.664547205E0,3.242968917E-1,-2.942706272E-2
1.974088339E1,4.285432339E0,-6.750914454E-2,-4.505602837E0
1.976077709E1,4.193223000E0,-3.826716423E0,-3.619728327E0
1.978064667E1,4.113264084E0,-5.831884384E0,-2.615013838E0
1.980054115E1,3.989563942E0,-5.125635147E0,-3.902214766E0
1.982048417E1,3.790764809E0,-5.311118603E0,-4.368587017E0
1.984031808E1,3.384112120E0,-5.874493599E0,-4.399545670E0
1.986018542E1,2.975262403E0,-5.812177658E0,-4.716119289E0
1.988010225E1,2.852161407E0,-5.862776279E0,-4.721978188E0
1.989999027E1,2.741310596E0,-6.223623753E0,-4.349412918E0
1.991987964E1,2.395376205E0,-6.364900589E0,-4.009337425E0
1.993977428E1,1.984995127E0,-6.118099213E0,-3.892095089E0
1.995965594E1,1.654506564E0,-5.776958466E0,-3.790298939E0
1.997954011E1,1.378411531E0,-5.438547134E0,-3.481714249E0
1.999943136E1,1.120425463E0,-4.814919949E0,-3.145899534E0
2.001932220E1,9.888025522E-1,-3.995156527E0,-2.907087564E0
2.003923506E1,9.461932182E-1,-3.337974310E0,-2.567078352E0
2.005911251E1,9.226915240E-1,-2.653095961E0,-2.158761263E0
2.007901370E1,7.788184881E-1,-1.712828159E0,-1.874676943E0
2.009887350E1,6.844788194E-1,-8.398030996E-1,-1.685997605E0
2.011878975E1,7.222945690E-1,-2.732322812E-1,-1.412565589E0
2.013864277E1,7.542515397E-1,1.115831584E-1,-1.146590233E0
2.015854787E1,8.161016703E-1,4.020588994E-1,-9.611064792E-1
2.017843131E1,7.926664948E-1,6.270228028E-1,-7.580464482E-1
2.019831865E1,7.281533480E-1,7.416019440E-1,-5.166380405E-1
2.021820928E1,5.986609459E-1,7.719610333E-1,-2.970002890E-1
2.023810381E1,4.840818346E-1,7.917344570E-1,-1.600512564E-1
2.025797886E1,4.942015409E-1,7.384062409E-1,-6.038539857E-2
2.027785891E1,4.952667654E-1,4.793548584E-1,9.154346585E-2
2.029777261E1,4.190360308E-1,6.684337556E-2,2.173075378E-1
2.031764042E1,3.300225139E-1,-1.698380858E-1,3.137777150E-1
2.033755626E1,2.159759998E-1,-7.603100687E-2,3.356815577E-1
2.035743740E1,1.221689135E-1,1.254311949E-1,2.866142690E-1
2.037736266E1,4.061200842E-2,1.995314658E-1,2.977991998E-1
2.039721251E1,-3.508611396E-2,2.096511722E-1,2.988644540E-1
2.041711391E1,-7.563154399E-2,2.571206093E-1,2.424070835E-1
2.043701714E1,-7.077141851E-2,2.470009029E-1,1.645784974E-1
2.045688141E1,-6.864095479E-2,1.409436464E-1,1.160438210E-1
2.047677376E1,-5.905385688E-2,8.282186836E-2,1.187069044E-1
2.049666850E1,-6.065170467E-2,1.707701683E-1,1.384137124E-1
2.051660574E1,-5.319507420E-2,3.392101526E-1,1.325549334E-1
2.053646766E1,-4.680367559E-2,3.701018989E-1,1.128481254E-1
2.055639173E1,-6.491263956E-2,2.000640780E-1,1.117828935E-1
2.057622256E1,-7.616416365E-2,1.990654133E-2,1.261635423E-1
2.059611402E1,-7.722939551E-2,-5.126433913E-3,1.187069044E-1
2.061601444E1,-7.023879886E-2,8.228924870E-2,9.154346585E-2
2.063591761E1,-5.159722641E-2,1.057243794E-1,8.195636421E-2
2.065578803E1,-5.212984234E-2,4.873441160E-2,5.798862129E-2
2.067568699E1,-5.852124095E-2,-4.593817517E-3,3.395430371E-2
2.069557042E1,-6.011908874E-2,4.460663069E-3,1.850842312E-2
2.071546792E1,-6.651048362E-2,1.990654133E-2,8.388710208E-3
2.073537902E1,-7.130403817E-2,-3.528584493E-3,1.531272475E-2
2.075525662E1,-6.704310328E-2,-3.495295718E-2,2.862813696E-2
2.077511610E1,-6.864095479E-2,-1.418091450E-2,4.247616604E-2
2.079502865E1,-6.384740770E-2,5.991935730E-2,5.159722641E-2
2.081491516E1,-5.905385688E-2,1.340196282E-1,6.597787142E-2
2.083479824E1,-3.934704512E-2,1.468024254E-1,1.037936434E-1
2.085469350E1,2.729659667E-3,9.134373069E-2,1.422086060E-1
2.087462136E1,5.499265343E-2,3.375457227E-2,1.810896099E-1
2.089449996E1,1.082543060E-1,7.323477184E-4,2.376135439E-1
2.091441100E1,1.392126381E-1,2.256962471E-2,2.951361239E-1
2.093423662E1,1.573216021E-1,9.027849883E-2,3.191038668E-1
2.095414428E1,1.418757290E-1,1.547916681E-1,3.233647943E-1
2.097402074E1,9.493889660E-2,1.729006320E-1,3.362141848E-1
2.099393313E1,3.741630912E-2,1.393457949E-1,3.692364097E-1
2.101382673E1,-1.324883569E-2,1.025286764E-1,3.788234890E-1
2.103373558E1,-5.319507420E-2,5.565842614E-2,3.569862247E-1
2.105360011E1,-9.533835202E-2,1.564561017E-2,3.159081638E-1
2.107347819E1,-1.587197185E-1,2.310224064E-2,2.679726779E-1
2.109343803E1,-2.349504530E-1,9.786828421E-3,1.864157766E-1
2.111325032E1,-3.287575543E-1,-4.134435579E-2,4.673709720E-2
2.113314162E1,-4.321517348E-1,-1.501312852E-1,-8.541837335E-2
2.115304308E1,-5.798196793E-1,-3.035914004E-1,-1.877473146E-1
2.117292891E1,-7.642381191E-1,-4.917382002E-1,-2.794239521E-1
2.119283673E1,-9.380042553E-1,-6.990591884E-1,-3.524589837E-1
2.121272683E1,-1.076018453E0,-8.248898387E-1,-4.131772518E-1
2.123263079E1,-1.221555948E0,-8.270202875E-1,-4.377442002E-1
2.125251891E1,-1.402778745E0,-5.935345292E-1,-3.583177626E-1
2.127243522E1,-1.472618103E0,2.272941023E-1,-1.430075318E-1
2.129225391E1,-1.217295051E0,1.670618296E0,1.523283273E-1
2.131216355E1,-9.278845191E-1,3.147031307E0,4.358800352E-1
2.133206183E1,-7.700968981E-1,4.030242443E0,7.790848017E-1
2.135194417E1,-7.167686820E-1,4.478439331E0,1.228945971E0
2.137183136E1,-7.669011950E-1,5.179362774E0,1.774212122E0
2.139171855E1,-8.415340781E-1,6.550783634E0,2.498038054E0
2.141161548E1,-1.055779099E0,8.239843369E0,3.239440203E0
2.143147949E1,-1.653308272E0,9.604873657E0,3.936102629E0
2.145141678E1,-2.675066471E0,1.032390594E1,4.678569794E0
2.147128318E1,-4.303874493E0,1.061384869E1,5.190747261E0
2.149117803E1,-6.475351810E0,1.067563248E1,4.909858704E0
2.151107339E1,-8.762407303E0,9.123055458E0,4.010136127E0
2.153096881E1,-1.093761253E1,4.198616028E0,3.495828390E0
2.155084344E1,-1.151217270E1,-5.402728915E-1,3.996288300E0
2.157074022E1,-7.528534412E0,8.548495173E-2,4.786225319E0
2.159060996E1,-3.266270757E-1,9.286834598E-1,4.567120075E0
2.161053016E1,3.766264439E0,1.402512431E0,-6.145063043E-2
2.163045438E1,4.250213146E0,-1.890122890E-1,-5.061521053E0
2.165028907E1,3.968791962E0,-5.535017490E0,-3.744959831E0
2.167017803E1,3.596759319E0,-7.147846699E0,-3.165073633E0
2.169010048E1,3.345697165E0,-5.151799679E0,-4.387761593E0
2.170995032E1,3.239107370E0,-4.320318699E0,-4.431502342E0
2.172986501E1,2.962479591E0,-4.582499504E0,-4.202277660E0
2.174973792E1,2.746104240E0,-5.106993198E0,-4.123982906E0
2.176962751E1,2.747702122E0,-5.791938305E0,-3.829179764E0
2.178949876E1,2.743441105E0,-6.333409309E0,-3.537106276E0
2.180943079E1,2.411887407E0,-6.596189022E0,-3.492899179E0
2.182929120E1,1.882666230E0,-6.529545784E0,-3.583510399E0
2.184916704E1,1.504774809E0,-6.143664837E0,-3.464071274E0
2.186908370E1,1.308572173E0,-5.516376019E0,-3.097364664E0
2.188895855E1,1.390661716E0,-4.712590694E0,-2.732855320E0
2.190886912E1,1.503709555E0,-3.980775833E0,-2.413551807E0
2.192874542E1,1.244658232E0,-3.350757122E0,-2.086325407E0
2.194863647E1,1.013835549E0,-2.451034546E0,-1.846448302E0
2.196853829E1,1.160438180E0,-1.494854808E0,-1.661497235E0
2.198844928E1,1.340063095E0,-9.139033556E-1,-1.469622135E0
2.200834506E1,1.316095352E0,-8.947291374E-1,-1.293725491E0
2.202818199E1,1.068761587E0,-1.131344080E0,-1.051717877E0
2.204810063E1,8.715603352E-1,-1.086071610E0,-8.012549877E-1
2.206796318E1,8.086450100E-1,-6.745588183E-1,-7.133066654E-1
2.208785751E1,7.639052272E-1,-2.183061987E-1,-5.725627542E-1
2.210773251E1,5.714309216E-1,1.718354076E-1,-3.023264408E-1
2.212762042E1,3.230984807E-1,5.779554844E-1,-1.045925692E-1
2.214751725E1,1.722348630E-1,9.857400060E-1,-5.505923182E-2
2.216742725E1,3.017938435E-1,1.320955515E0,-6.624417752E-2
2.218731980E1,3.454683721E-1,8.604419827E-1,5.266245827E-2
2.220718428E1,2.127802968E-1,1.883465201E-1,1.826874614E-1
2.222709662E1,1.631803811E-1,-5.845466256E-2,2.562551200E-1
2.224695376E1,1.216362938E-1,-2.802894451E-2,2.839511633E-1
2.226685834E1,6.671021879E-2,7.270215452E-2,2.418744713E-1
2.228676480E1,2.676397935E-2,9.294158220E-2,1.784265339E-1
2.230664720E1,-2.603163198E-2,3.395430278E-3,1.219026074E-1
2.232654558E1,-7.616416365E-2,-1.474681944E-1,2.543243766E-2
2.234644444E1,-1.001319066E-1,-3.046566546E-1,-6.038539857E-2
2.236634246E1,-1.177082509E-1,-3.243634701E-1,-1.131144315E-1
2.238622053E1,-1.081211492E-1,-2.326868325E-1,-1.285603046E-1
2.240610709E1,-1.038602218E-1,-2.033929378E-1,-1.237667650E-1
2.242598282E1,-1.182408631E-1,-2.726996541E-1,-9.926640242E-2
2.244586157E1,-1.390129030E-1,-3.478651643E-1,-5.825493112E-2
2.246575282E1,-1.539261788E-1,-3.483977616E-1,-7.057168987E-3
2.248568308E1,-1.422086060E-1,-2.929390669E-1,2.596505545E-2
2.250553813E1,-1.517957002E-1,-3.014609516E-1,1.850842312E-2
2.252544636E1,-1.843518913E-1,-3.627784252E-1,6.258244161E-3
2.254534589E1,-2.370809317E-1,-3.931375742E-1,1.051917579E-2
2.256520251E1,-2.669740319E-1,-3.601153493E-1,2.276935615E-2
2.258509397E1,-2.834851444E-1,-2.918738425E-1,2.383458801E-2
2.260500589E1,-2.861482203E-1,-2.294911444E-1,1.744319126E-2
2.262488042E1,-2.611152530E-1,-2.060560137E-1,-1.198387123E-3
2.264479444E1,-2.083196342E-1,-1.804904193E-1,-9.720250964E-3
2.266467167E1,-1.581871063E-1,-1.602509916E-1,9.453942999E-3
2.268459970E1,-1.240996495E-1,-1.575879157E-1,2.969337068E-2
2.270445266E1,-1.059906855E-1,-1.751642525E-1,6.171693653E-2
2.272434183E1,-1.059906855E-1,-1.543922126E-1,9.314130992E-2
2.274423371E1,-8.947957307E-2,-9.360735118E-2,1.171090528E-1
2.276413902E1,-6.757572293E-2,-4.880098626E-2,1.293592304E-1
2.278399084E1,-4.680367559E-2,-4.400743917E-2,1.277613789E-1
2.280387824E1,-2.975994721E-2,-4.880098626E-2,1.240330711E-1
2.282378667E1,-1.697715186E-2,-7.789516356E-3,1.203047559E-1
2.284365829E1,-2.177070081E-2,4.234301299E-2,1.219026074E-1
2.286356917E1,-1.804238372E-2,6.737598777E-2,1.027284116E-1
2.288345605E1,-3.129122080E-3,1.990654133E-2,8.355421573E-2
2.290334402E1,-3.661738476E-3,-3.974650800E-2,7.769543678E-2
2.292321501E1,3.794892691E-3,-6.378082931E-2,7.236927003E-2
2.294313454E1,6.457975134E-3,-6.058513001E-2,6.011908874E-2
2.296302568E1,9.121057577E-3,-4.880098626E-2,4.460663348E-2
2.298288980E1,3.262276063E-3,-5.419373140E-2,3.874785081E-2
2.300280277E1,-7.922670804E-3,-7.123745978E-2,4.300878197E-2
2.302269089E1,-1.644453406E-2,-6.271559745E-2,3.928046674E-2
2.304258454E1,-2.603163198E-2,-3.548557684E-2,3.821523488E-2
2.306246933E1,-3.348826244E-2,-1.311568171E-2,5.106460676E-2
2.308240407E1,-3.881442919E-2,5.525896326E-3,6.970618665E-2
2.310224678E1,-3.029256500E-2,3.055887297E-2,8.195636421E-2
2.312214475E1,-1.537930220E-2,5.406057462E-2,9.260869771E-2
2.314201173E1,-4.726971500E-3,8.601756394E-2,1.128481254E-1
2.316192777E1,2.197043039E-3,1.201050207E-1,1.422086060E-1
2.318180542E1,4.860125482E-3,1.340196282E-1,1.752308309E-1
2.320170376E1,-3.661738476E-3,1.190397888E-1,2.061225921E-1
2.322158704E1,-3.828181326E-2,7.430000603E-2,2.626465261E-1
2.324146037E1,-9.746882319E-2,4.553871229E-2,3.367467821E-1
2.326137188E1,-1.870149672E-1,-2.802894451E-2,3.809539676E-1
2.328124074E1,-3.575854003E-1,-2.209692746E-1,4.310864806E-1
2.330115568E1,-5.569171309E-1,-4.112465382E-1,4.832828939E-1
2.332104022E1,-7.188991308E-1,-5.466642976E-1,5.493939519E-1
2.334090923E1,-8.862738609E-1,-7.006570101E-1,5.738942623E-1
2.336080657E1,-1.013169765E0,-8.435314298E-1,5.318176150E-1
2.338069740E1,-1.111770391E0,-1.013036609E0,4.923373759E-1
2.340060912E1,-1.170890808E0,-1.170824289E0,4.934026301E-1
2.342050964E1,-1.185338020E0,-1.274751067E0,5.045875907E-1
2.344042907E1,-1.187468529E0,-1.255510330E0,4.965983331E-1
2.346024277E1,-1.198653460E0,-1.071691036E0,4.380105138E-1
2.348014694E1,-1.237534523E0,-7.491917014E-1,3.378120363E-1
2.350005042E1,-1.248186827E0,-3.505282402E-1,2.972666025E-1
2.351993370E1,-1.189599037E0,2.064554691E-1,3.857475221E-1
2.353983558E1,-1.007310987E0,1.131210923E0,6.245594621E-1
2.355969553E1,-7.402703762E-1,2.593775749E0,1.020559788E0
2.357961204E1,-3.473991156E-1,4.457134724E0,1.507171631E0
2.359947621E1,-9.587097168E-2,6.268829823E0,2.170212507E0
2.361941459E1,-5.958647281E-2,8.022935867E0,3.094968081E0
2.363927214E1,-1.960694492E-1,9.602210045E0,4.168989182E0
2.365917746E1,-8.447297812E-1,1.078495216E1,5.346937180E0
2.367904751E1,-2.178268433E0,1.195058346E1,6.338802338E0
2.369894621E1,-4.374246120E0,1.315036869E1,6.773750305E0
2.371882537E1,-7.136262417E0,1.336301517E1,6.439599991E0
2.373871214E1,-9.743686676E0,9.996080399E0,5.561714649E0
2.375862370E1,-1.078195572E1,3.110280752E0,4.761658192E0
2.377849860E1,-7.750236034E0,-2.652430236E-1,4.049616337E0
2.379839350E1,-1.246056318E0,-7.252239585E-1,2.677662849E0
2.381828345E1,3.710273266E0,-2.318346500E0,-6.837464124E-2
2.383818319E1,3.827581882E0,-3.584242821E0,-5.125967979E0
2.385806631E1,3.827049255E0,-5.992867947E0,-6.221826553E0
2.387793813E1,3.704946995E0,-7.523607731E0,-5.244874477E0
2.389785235E1,3.306816101E0,-6.468294621E0,-5.507121563E0
2.391771824E1,3.014209986E0,-5.645868301E0,-5.406856537E0
2.393761777E1,2.738647461E0,-5.834547520E0,-4.916516304E0
2.395748751E1,2.438052177E0,-6.065836430E0,-4.740619659E0
2.397742501E1,2.255764008E0,-6.439533234E0,-4.626040936E0
2.399728912E1,2.102237463E0,-7.014626026E0,-4.268921375E0
2.401716912E1,1.787793875E0,-7.094052315E0,-3.947021246E0
2.403708537E1,1.480740428E0,-6.521556377E0,-3.635174274E0
2.405696152E1,1.453577042E0,-5.634683132E0,-3.375057697E0
2.407683042E1,1.486066699E0,-4.602272511E0,-3.143769026E0
2.409671730E1,1.122023225E0,-3.509077311E0,-2.798367262E0
2.411660162E1,7.671009302E-1,-2.424403667E0,-2.546838999E0
2.413651516E1,8.459281921E-1,-1.430341601E0,-2.313885927E0
2.415642740E1,9.338764548E-1,-5.594470501E-1,-1.986593008E0
2.417628376E1,8.507217169E-1,1.878138930E-1,-1.737728000E0
2.419615818E1,6.882070899E-1,6.328815818E-1,-1.560233474E0
2.421606032E1,4.963320196E-1,7.181667686E-1,-1.264431596E0
2.423597829E1,4.840818346E-1,1.227148414E0,-9.643021822E-1
2.425585912E1,7.921339273E-1,2.210025549E0,-4.388094246E-1
2.427574365E1,7.862751484E-1,1.749512076E0,-6.524552125E-3
2.429563589E1,5.752258301E-1,5.167046189E-1,1.411433816E-1
2.431550600E1,3.417400718E-1,-5.823495984E-1,2.322207987E-1
2.433541397E1,1.791588813E-1,-9.485234022E-1,2.754293084E-1
2.435528928E1,1.039933711E-1,-7.135064006E-1,2.424070835E-1
2.437521079E1,8.215609938E-2,-3.723655045E-1,1.800243855E-1
2.439510350E1,5.499265343E-2,-1.122489274E-1,1.491326243E-1
2.441498032E1,-3.348826244E-2,5.619104207E-2,1.043262556E-1
2.443491980E1,-1.299584359E-1,1.264964193E-1,-1.291595027E-2
2.445476251E1,-1.416759938E-1,1.452045739E-1,-1.072556525E-1
2.447465063E1,-1.011971384E-1,1.233007237E-1,-1.242993772E-1
2.449455220E1,-7.935985923E-2,5.778888986E-2,-1.264298409E-1
2.451445579E1,-6.118432060E-2,-3.442034125E-2,-7.796174288E-2
2.453429246E1,-6.331478804E-2,-1.549248248E-1,-3.741630912E-2
2.455421522E1,-7.023879886E-2,-2.556559145E-1,-2.356828004E-2
2.457410365E1,-6.597787142E-2,-2.902759910E-1,-3.475322574E-2
2.459398626E1,-6.757572293E-2,-2.481992990E-1,-5.718969926E-2
2.461385178E1,-7.290188223E-2,-1.783599555E-1,-4.327509180E-2
2.463375860E1,-6.917356700E-2,-1.335535944E-1,-1.930734888E-2
2.465365329E1,-6.970618665E-2,-1.655771583E-1,-1.770949923E-2
2.467354657E1,-8.628387749E-2,-1.666423976E-1,-3.528584540E-2
2.469347152E1,-9.107742459E-2,-5.792204663E-2,-2.197043039E-2
2.471333319E1,-9.640359133E-2,6.790860742E-2,-5.991935730E-3
2.473321136E1,-1.134473160E-1,9.187635034E-2,-9.187635034E-3
2.475310714E1,-1.251648813E-1,1.138467807E-2,-1.238333434E-2
2.477299094E1,-1.283605844E-1,-4.454005510E-2,-4.394086078E-3
2.479285813E1,-1.155777797E-1,-7.789516356E-3,2.703028731E-2
2.481275277E1,-1.011971384E-1,7.110430300E-2,6.224955618E-2
2.483264542E1,-8.415340632E-2,1.185071766E-1,8.888038248E-2
2.485255829E1,-8.734910935E-2,1.057243794E-1,9.900009632E-2
2.487244480E1,-1.043928340E-1,8.548495173E-2,1.085871905E-1
2.489233194E1,-1.209039465E-1,8.814803511E-2,1.448716968E-1
2.491221985E1,-1.358172148E-1,4.820179567E-2,1.837527007E-1
2.493210167E1,-1.571218669E-1,-2.856156044E-2,2.082530558E-1
2.495199970E1,-1.896780580E-1,-3.335510939E-2,2.300903350E-1
2.497187272E1,-2.306895256E-1,5.885412544E-2,2.578529716E-1
2.499177688E1,-2.595174015E-1,8.974587917E-2,2.807554901E-1
2.501165178E1,-2.968005538E-1,-1.311568171E-2,2.855490148E-1
2.503156131E1,-3.634441793E-1,-1.613162309E-1,2.802228630E-1
2.505145667E1,-4.497946501E-1,-2.402100414E-1,2.786250114E-1
2.507134777E1,-5.275566578E-1,-2.577863932E-1,2.940708995E-1
2.509124011E1,-6.107113957E-1,-3.094501793E-1,2.924730480E-1
2.511112397E1,-7.157034278E-1,-4.213662446E-1,2.759619355E-1
2.513101975E1,-8.511211872E-1,-5.429359674E-1,2.626465261E-1
2.515089891E1,-9.619719982E-1,-6.697652340E-1,2.338852286E-1
2.517077527E1,-1.007310987E0,-7.779529691E-1,1.938724071E-1
2.519066522E1,-1.018495917E0,-7.774204016E-1,1.715025157E-1
2.521058756E1,-1.047257185E0,-6.825480461E-1,1.629806459E-1
2.523049069E1,-1.094726682E0,-5.818169713E-1,1.480673850E-1
2.525035902E1,-1.171423435E0,-4.805532396E-1,1.256309152E-1
2.527022220E1,-1.257241249E0,-3.217003644E-1,1.346853971E-1
2.529013766E1,-1.359037638E0,-1.223686412E-1,1.597849578E-1
2.531000240E1,-1.436866164E0,6.045197323E-2,2.013290375E-1
2.532990829E1,-1.467291951E0,3.514603078E-1,3.676385581E-1
2.534980881E1,-1.414496303E0,8.694964647E-1,7.141056061E-1
2.536968777E1,-1.321221828E0,1.634400368E0,1.236402631E0
2.538959027E1,-1.057376981E0,2.696104765E0,2.030600548E0
2.540945626E1,-6.374087930E-1,4.379838943E0,2.957486391E0
2.542936157E1,-3.618463576E-1,6.766093731E0,3.800684929E0
2.544925355E1,-5.275566578E-1,9.027117729E0,4.748342991E0
2.546914912E1,-1.078681588E0,1.044114780E1,5.952921391E0
2.548900261E1,-1.969882131E0,1.133873940E1,7.054106236E0
2.550891855E1,-3.644561529E0,1.243666172E1,7.627068520E0
2.552879511E1,-6.209376335E0,1.390561867E1,7.542315960E0
2.554870423E1,-9.243759155E0,1.418863773E1,6.610636234E0
2.556858287E1,-1.169392872E1,9.506805420E0,5.509518147E0
2.558848949E1,-1.107083321E1,2.302767515E0,4.796344757E0
2.560838209E1,-4.837955475E0,-9.490560293E-1,3.727117300E0
2.562824001E1,2.588849068E0,-3.549023628E0,2.496972799E0
2.564815756E1,5.205394268E0,-4.551607609E0,-3.537106276E0
2.566801532E1,4.307802200E0,-6.057314396E0,-8.416206360E0
2.568790334E1,4.756598473E0,-9.048022270E0,-6.304981232E0
2.570781704E1,4.147351742E0,-9.526112556E0,-5.344540596E0
2.572770964E1,3.366003275E0,-8.197367668E0,-6.171760559E0
2.574760058E1,2.661884069E0,-7.869009495E0,-6.266632557E0
2.576749891E1,2.059095383E0,-7.962816715E0,-5.759182453E0
2.578738600E1,1.564427853E0,-7.721341610E0,-5.195274830E0
2.580726871E1,1.246256113E0,-7.140922546E0,-4.679368973E0
2.582713470E1,1.239864707E0,-6.222558498E0,-4.360065460E0
2.584704037E1,1.423750520E0,-5.043013096E0,-4.023252010E0
2.586693027E1,1.424815774E0,-3.986101866E0,-3.591499805E0
2.588682756E1,1.351780653E0,-3.408346176E0,-3.213075638E0
2.590670615E1,1.222820878E0,-3.209547043E0,-2.722669125E0
2.592659246E1,1.018096447E0,-2.648302555E0,-2.239785671E0
2.594650923E1,8.981911540E-1,-1.570020318E0,-1.902972221E0
2.596641454E1,1.031411886E0,-7.076476216E-1,-1.598049283E0
2.598627459E1,1.134872675E0,-3.537239432E-1,-1.179679036E0
2.600617344E1,1.149785876E0,1.366827190E-1,-8.300162554E-1
2.602602615E1,1.281941414E0,9.713593721E-1,-6.221626401E-1
2.604594016E1,1.424283147E0,1.585865617E0,-3.998618424E-1
2.606581178E1,1.381607175E0,1.512297988E0,-8.861406893E-2
2.608570391E1,1.096990228E0,9.265530109E-1,1.432738453E-1
2.610558970E1,7.745575905E-1,3.397427499E-1,2.274272442E-1
2.612547897E1,6.370093226E-1,3.162410483E-2,2.162422985E-1
2.614539204E1,5.794867873E-1,-1.319557428E-1,1.336201727E-1
2.616528079E1,4.467321038E-1,-3.062545061E-1,8.921326138E-3
2.618516313E1,2.964676619E-1,-3.089175820E-1,-1.195058301E-1
2.620503282E1,3.071199954E-1,6.098458916E-2,-2.357493788E-1
2.622492720E1,3.188375533E-1,2.464682907E-1,-2.298905998E-1
2.624481923E1,2.671071887E-1,1.526612043E-1,-1.760297567E-1
2.626473496E1,2.085193694E-1,1.388131827E-1,-1.419423074E-1
2.628462694E1,1.567889899E-1,2.592510879E-1,-1.392792165E-1
2.630451162E1,1.200384498E-1,3.173728585E-1,-1.403444558E-1
2.632441568E1,6.990591437E-2,2.085859478E-1,-1.322886199E-1
2.634426084E1,2.889444493E-2,1.388131827E-1,-1.242993772E-1
2.636417829E1,2.623136342E-2,1.446719617E-1,-1.131144315E-1
2.638409407E1,1.817553863E-2,8.814803511E-2,-8.435314149E-2
2.640397391E1,-2.603163198E-2,7.376738638E-2,-9.820117056E-2
2.642385438E1,-6.118432060E-2,8.548495173E-2,-1.349517107E-1
2.644373407E1,-1.331541240E-1,6.737598777E-2,-1.430075318E-1
2.646362553E1,-2.024608552E-1,2.128468752E-1,-1.467358470E-1
2.648352720E1,-2.152436525E-1,3.972653449E-1,-1.242993772E-1
2.650345157E1,-2.381461561E-1,5.081827044E-1,-6.837464124E-2
2.652331407E1,-2.354830801E-1,5.561181903E-1,-7.210296392E-2
2.654318511E1,-2.360156924E-1,4.447347820E-1,-1.227015257E-1
2.656310089E1,-1.379476786E-1,2.213687450E-1,-9.340762347E-2
2.658294548E1,-7.456631213E-2,1.078548431E-1,-5.991935730E-3
2.660284084E1,-6.384740770E-2,7.483261824E-2,7.929328084E-2
2.662273376E1,-6.970618665E-2,4.460663069E-3,8.089113235E-2
2.664265490E1,-5.053199083E-2,-1.420754492E-1,4.726971686E-2
2.666255886E1,-3.774919361E-2,-2.204366624E-1,5.106460676E-2
2.668246147E1,-1.910761744E-2,-1.756968647E-1,6.970618665E-2
2.670230261E1,3.262276063E-3,-8.242240548E-2,7.716281712E-2
2.672222141E1,1.497983932E-2,-1.398118329E-3,4.354140162E-2
2.674210496E1,2.836182900E-2,-8.655018173E-4,3.342168778E-2
2.676197678E1,1.178414002E-2,-1.151783206E-2,3.874785081E-2
2.678186772E1,-1.218360290E-2,2.842840552E-2,3.661738336E-2
2.680177032E1,-2.975994721E-2,9.294158220E-2,1.691057347E-2
2.682165579E1,-4.254274443E-2,7.163692266E-2,6.790860556E-3
2.684151350E1,-7.183665037E-2,3.109148890E-2,1.478010789E-2
2.686143704E1,-1.017297506E-1,6.418029219E-2,3.395430371E-2
2.688129370E1,-1.086537689E-1,1.430741102E-1,5.053199083E-2
2.690119334E1,-9.001219273E-2,1.931400597E-1,5.212984234E-2
2.692110344E1,-1.038602218E-1,2.224339694E-1,4.087831825E-2
2.694099152E1,-1.454043090E-1,2.326202542E-1,1.264964230E-2
2.696088579E1,-1.912759095E-1,1.915422082E-1,-2.410089783E-2
2.698074251E1,-2.280264497E-1,1.094526947E-1,-3.049229458E-2
2.700065792E1,-2.776263654E-1,-3.282249346E-2,-4.220985994E-2
2.702054772E1,-3.570528030E-1,-2.294911444E-1,-1.003316343E-1
2.704044975E1,-4.433366656E-1,-4.912055731E-1,-1.317560077E-1
2.706031042E1,-5.622432828E-1,-8.147701025E-1,-1.232341453E-1
2.708019626E1,-7.098446488E-1,-1.118028641E0,-7.370080799E-2
2.710010058E1,-8.798824549E-1,-1.287001252E0,-3.901416063E-2
2.712000277E1,-1.040865779E0,-1.334404111E0,-1.291595027E-2
2.713986157E1,-1.226349473E0,-1.395721555E0,2.809552103E-2
2.715975011E1,-1.416094184E0,-1.314697266E0,1.133807376E-1
2.717966298E1,-1.539727807E0,-9.059141278E-1,2.487984896E-1
2.719953042E1,-1.595719099E0,-1.788925678E-1,5.185021758E-1
2.721946079E1,-1.602110505E0,8.780848980E-1,7.636389136E-1
2.723932022E1,-1.461366534E0,1.923810840E0,1.001918197E0
2.725922704E1,-1.352646232E0,2.616145611E0,1.346254826E0
2.727910397E1,-1.279145122E0,3.126259089E0,1.817953348E0
2.729900470E1,-1.186403275E0,3.918259859E0,2.436720610E0
2.731889355E1,-1.122422695E0,5.423501015E0,3.089109182E0
2.733879006E1,-1.164499402E0,7.366286278E0,3.672790289E0
2.735867678E1,-1.507770777E0,9.040966034E0,4.181239128E0
2.737856897E1,-2.264086246E0,1.015759563E1,4.616719723E0
2.739846990E1,-3.405816317E0,1.075079727E1,5.139083385E0
2.741836292E1,-4.881629944E0,1.070179653E1,5.614510536E0
2.743824089E1,-6.610702991E0,1.023755550E1,5.600595951E0
2.745812444E1,-8.604153633E0,9.294157982E0,5.228563309E0
2.747800272E1,-1.056824303E1,6.852976799E0,5.019111633E0
2.749791246E1,-1.045153427E1,3.539835930E0,5.346937180E0
2.751779386E1,-6.011109829E0,1.529408336E0,6.108578682E0
2.753767626E1,1.077283502E0,5.055196285E-1,3.960070372E0
2.755754970E1,4.091426849E0,-3.083849549E-1,-2.772269011E0
2.757745334E1,3.383579493E0,-5.184822083E0,-5.899393559E0
2.759734652E1,3.105886698E0,-1.024940586E1,-3.830777645E0
2.761724860E1,2.297840834E0,-8.744697571E0,-4.041893482E0
2.763712199E1,2.099574327E0,-5.367642403E0,-4.923440456E0
2.765701886E1,2.385789156E0,-4.153476715E0,-4.514657497E0
2.767691360E1,2.566479206E0,-4.200879574E0,-4.292889118E0
2.769680272E1,2.511553049E0,-4.906064034E0,-4.114329338E0
2.771669438E1,2.408159018E0,-5.895864964E0,-3.789766312E0
2.773660558E1,2.321808577E0,-6.501317024E0,-3.779646397E0
2.775646746E1,2.175805092E0,-6.767824650E0,-3.759407043E0
2.777635595E1,1.775477171E0,-7.080137730E0,-3.533910513E0
2.779625423E1,1.421087384E0,-7.203305244E0,-3.335644007E0
2.781616454E1,1.239332080E0,-6.579145432E0,-3.124062061E0
2.783603261E1,1.293658972E0,-5.199735165E0,-2.922600031E0
2.785592147E1,1.539927483E0,-3.755345821E0,-2.693907738E0
2.787581907E1,1.837327242E0,-2.800697327E0,-2.416214705E0
2.789569042E1,1.748313665E0,-2.018283606E0,-2.081532001E0
2.791557917E1,1.550579786E0,-1.084473848E0,-1.968484044E0
2.793546553E1,1.558036447E0,-5.823495984E-1,-1.825676203E0
2.795536662E1,1.603908062E0,-6.228950024E-1,-1.465893745E0
2.797524865E1,1.382139802E0,-5.674363375E-1,-1.129013896E0
2.799515829E1,9.930635095E-1,-1.767621040E-1,-8.731582165E-1
2.801505152E1,6.460638046E-1,1.574547589E-1,-5.800193548E-1
2.803490897E1,3.092504740E-1,2.869471312E-1,-2.985981405E-1
2.805479501E1,6.457975507E-2,3.690366745E-1,-1.414096802E-1
2.807471204E1,-1.038602218E-1,5.076501369E-1,-2.995967865E-2
2.809457115E1,-2.562551200E-1,6.131747365E-1,3.288906813E-2
2.811446990E1,-2.850829959E-1,4.985290468E-1,3.994623839E-4
2.813439444E1,-2.709686570E-2,1.707701683E-1,-7.103772461E-2
2.815424407E1,8.854749799E-2,-3.153089881E-1,-1.904104054E-1
2.817415777E1,1.450714171E-1,-5.013253093E-1,-2.522605062E-1
2.819402584E1,1.360169351E-1,-3.883440197E-1,-2.501300275E-1
2.821391011E1,-1.537930220E-2,-2.071212530E-1,-2.820870280E-1
2.823379407E1,-1.859497428E-1,-1.372819096E-1,-2.682389915E-1
2.825370308E1,-2.994636297E-1,-2.668408751E-1,-2.202369273E-1
2.827357792E1,-3.298227787E-1,-5.695667863E-1,-2.106498331E-1
2.829349183E1,-3.693029881E-1,-8.169005513E-1,-2.239652425E-1
2.831342720E1,-4.433366656E-1,-7.758225203E-1,-2.304232121E-1
2.833326600E1,-4.774906933E-1,-5.743603110E-1,-2.458691001E-1
2.835314251E1,-4.636426866E-1,-4.794880152E-1,-2.602497339E-1
2.837307470E1,-4.278907776E-1,-4.837489426E-1,-2.709020674E-1
2.839292662E1,-3.938033283E-1,-4.342156053E-1,-2.948698103E-1
2.841284319E1,-3.693029881E-1,-3.643762767E-1,-2.868805826E-1
2.843270433E1,-3.618463576E-1,-3.968658745E-1,-2.154433727E-1
2.845261610E1,-3.655746579E-1,-4.832163453E-1,-1.440727711E-1
2.847251277E1,-3.735639155E-1,-5.125102401E-1,-8.222267032E-2
2.849244647E1,-3.943359554E-1,-4.661726058E-1,-5.559184775E-2
2.851226011E1,-4.113796651E-1,-4.000615776E-1,-4.706998542E-2
2.853217917E1,-4.230972528E-1,-3.963332474E-1,-3.688369319E-2
2.855210470E1,-4.188362956E-1,-4.571181238E-1,-2.090519853E-2
2.857193537E1,-4.268255532E-1,-4.752270877E-1,8.388710208E-3
2.859182688E1,-4.412062168E-1,-4.448679388E-1,1.637795754E-2
2.861170964E1,-4.369452596E-1,-4.730966091E-1,-6.657706108E-4
2.863162808E1,-4.113796651E-1,-5.386750102E-1,7.856093347E-3
2.865151407E1,-3.863466978E-1,-5.674363375E-1,4.567186534E-2
2.867139818E1,-3.698355854E-1,-5.812843442E-1,3.821523488E-2
2.869130589E1,-3.489969671E-1,-5.780886412E-1,-4.274247587E-2
2.871119308E1,-3.244965971E-1,-4.986622036E-1,-5.932016298E-2
2.873112006E1,-2.643109560E-1,-3.158415854E-1,7.856093347E-3
2.875096964E1,-2.019282281E-1,-1.906101406E-1,8.461944759E-2
2.877084282E1,-1.491326243E-1,-1.932732165E-1,1.346853971E-1
2.879072542E1,-1.203713343E-1,-1.794251949E-1,1.768286824E-1
2.881064829E1,-7.935985923E-2,-7.869409025E-2,2.135792226E-1
2.883055740E1,-2.656424791E-2,4.766917601E-2,2.114487588E-1
2.885045938E1,4.327509180E-2,2.320876420E-1,1.587197185E-1
2.887027954E1,1.018629074E-1,5.033891797E-1,8.674991131E-2
2.889020089E1,1.525280476E-1,7.000578046E-1,4.087831825E-2
2.891009787E1,1.956699938E-1,7.447975874E-1,4.999937490E-2
2.892997902E1,2.308892608E-1,7.133732438E-1,9.207607806E-2
2.894984881E1,2.367480397E-1,6.355446577E-1,1.486000121E-1
2.896973084E1,2.394111156E-1,5.092479587E-1,2.402766198E-1
2.898961063E1,2.724333405E-1,4.127778113E-1,3.857475221E-1
2.900952011E1,3.353486657E-1,4.175713360E-1,5.169043541E-1
2.902942641E1,4.280905128E-1,4.575175941E-1,5.872097015E-1
2.904932235E1,5.016582012E-1,4.713656008E-1,6.128418446E-1
2.906920324E1,5.176366568E-1,4.591154456E-1,6.117766500E-1
2.908907412E1,4.851470590E-1,4.191691875E-1,5.765573978E-1
2.910898568E1,4.584496617E-1,3.397427499E-1,5.008592606E-1
2.912887818E1,4.552539587E-1,3.253621161E-1,3.958672285E-1
2.914876428E1,4.328840673E-1,4.804200828E-1,2.541246414E-1
2.916862037E1,3.651751876E-1,6.547188759E-1,5.426030606E-2
2.918851954E1,2.687050402E-1,6.302185059E-1,-1.430075318E-1
2.920843667E1,1.498649716E-1,4.191691875E-1,-2.677063644E-1
2.922832938E1,5.765573680E-2,2.011293173E-1,-3.396761715E-1
2.924821735E1,-3.668396175E-2,1.244991086E-2,-3.849485815E-1
2.926811318E1,-1.608501822E-1,-1.372819096E-1,-3.849485815E-1
2.928800173E1,-3.015941083E-1,-2.977326214E-1,-3.902747631E-1
2.930787183E1,-4.513925016E-1,-5.408055186E-1,-4.062532485E-1
2.932776449E1,-6.336805224E-1,-7.566483617E-1,-4.089163244E-1
2.934763428E1,-8.367405534E-1,-8.584446907E-1,-3.993292153E-1
2.936756141E1,-1.079746842E0,-8.722926974E-1,-3.876116574E-1
2.938745506E1,-1.335602522E0,-7.731594443E-1,-3.615134656E-1
2.940733376E1,-1.592523336E0,-5.119776130E-1,-3.156418502E-1
2.942719714E1,-1.829670906E0,-5.659050308E-3,-1.045925692E-1
2.944710594E1,-1.915488720E0,1.016099095E0,4.486628473E-1
2.946698907E1,-1.739592075E0,2.528730154E0,1.211902261E0
2.948688506E1,-1.531738520E0,4.553605080E0,2.113222599E0
2.950677584E1,-1.416626811E0,7.222878933E0,3.307681799E0
2.952663683E1,-1.505640268E0,9.935828209E0,4.587426186E0
2.954657813E1,-1.910695195E0,1.197242069E1,5.749861717E0
2.956646511E1,-2.777395487E0,1.341048527E1,6.597321033E0
2.958635907E1,-4.275113106E0,1.428191185E1,6.994985580E0
2.960621022E1,-6.097992897E0,1.466892433E1,6.857437611E0
2.962611235E1,-8.259817123E0,1.412845230E1,5.799993992E0
2.964600454E1,-1.114653206E1,9.338897705E0,4.495749474E0
2.966589470E1,-1.307387161E1,6.790860742E-2,4.195087433E0
2.968575542E1,-9.600811958E0,-5.193343639E0,5.577693462E0
2.970568110E1,3.262276063E-3,-3.318799973E0,4.043225288E0
2.972556818E1,4.834959507E0,-5.366111174E-2,-2.603828907E0
2.974546402E1,3.715066671E0,-2.558756351E0,-5.953187943E0
2.976536053E1,2.401767492E0,-7.715482712E0,-3.142171144E0
2.978524485E1,1.666224122E0,-7.227805614E0,-2.630992413E0
2.980510303E1,2.072410822E0,-4.897009373E0,-3.751950502E0
2.982501813E1,2.662949324E0,-4.270719051E0,-4.546081543E0
2.984490626E1,3.001959801E0,-4.751471996E0,-4.830698490E0
2.986478470E1,3.280718088E0,-5.537147999E0,-4.590355396E0
2.988469600E1,3.160746098E0,-6.148991108E0,-4.726239204E0
2.990459751E1,2.738114834E0,-6.889328003E0,-5.069510460E0
2.992446657E1,2.038256884E0,-7.700569630E0,-5.126500607E0
2.994435912E1,1.180677652E0,-7.997436523E0,-5.079097748E0
2.996424376E1,4.131772518E-1,-7.719211102E0,-4.992747307E0
2.998411589E1,2.623136342E-2,-6.973547935E0,-4.553005695E0
3.000402303E1,5.765573680E-2,-5.528093338E0,-4.053078651E0
3.002391845E1,4.115794003E-1,-3.980775833E0,-3.576586485E0
3.004380688E1,7.579798698E-1,-3.074661970E0,-2.974263668E0
3.006369928E1,7.686987519E-1,-2.471340656E0,-2.397040606E0
3.008358141E1,5.479958057E-1,-1.393591046E0,-2.142250299E0
3.010345079E1,6.524552107E-1,-2.758953571E-1,-2.009562016E0
3.012339720E1,8.752886653E-1,3.039908707E-1,-1.663095117E0
3.014327641E1,9.904004335E-1,4.084502757E-1,-1.208440304E0
3.016312105E1,8.736907840E-1,3.216337860E-1,-7.228937745E-1
3.018301678E1,7.900034189E-1,6.280879974E-1,-2.122476846E-1
3.020290834E1,8.347432017E-1,1.333205700E0,2.834185660E-1
3.022280855E1,7.116422653E-1,1.319890261E0,5.318176150E-1
3.024269907E1,5.336151719E-1,8.956612349E-1,6.288203597E-1
3.026257522E1,3.534576297E-1,6.110442877E-1,6.266899109E-1
3.028247053E1,2.489982247E-1,5.699662566E-1,4.694348872E-1
3.030236464E1,2.229000032E-1,5.944666266E-1,2.674400806E-1
3.032226287E1,2.138455361E-1,6.371424794E-1,9.420654923E-2
3.034215188E1,2.362154275E-1,7.805495262E-1,6.790860556E-3
3.036201683E1,2.292914093E-1,8.834110498E-1,-2.143781446E-2
3.038194246E1,2.154433727E-1,7.309495807E-1,-2.090519853E-2
3.040181506E1,1.839524209E-1,3.967327178E-1,7.323476952E-3
3.042170678E1,1.503975838E-1,1.665092409E-1,6.331478804E-2
3.044157746E1,1.360169351E-1,1.350848675E-1,6.864095479E-2
3.046147944E1,1.147122830E-1,1.404110342E-1,7.183665037E-2
3.048137303E1,9.067796171E-2,1.035939083E-1,8.728253096E-2
3.050125798E1,8.428656310E-2,3.908073530E-2,1.016631797E-1
3.052115407E1,7.736254483E-2,-6.724283565E-3,8.781515062E-2
3.054106631E1,6.191666797E-2,-6.191667169E-3,3.608476743E-2
3.056091105E1,4.593817517E-2,-1.045259926E-2,-6.657706108E-4
3.058080907E1,4.007939249E-2,-2.696371078E-2,5.725627299E-3
3.060071136E1,4.220985994E-2,-5.093145370E-2,-7.057168987E-3
3.062061641E1,3.102491237E-2,-8.774857223E-2,-3.688369319E-2
3.064052600E1,1.018629037E-2,-9.307473898E-2,-5.612446368E-2
3.066041568E1,-1.531272428E-3,-5.898727849E-2,-6.784202904E-2
3.068026761E1,-2.177070081E-2,-2.802894451E-2,-3.581846133E-2
3.070014470E1,-2.496639825E-2,1.617822610E-2,-1.344856713E-2
3.072008079E1,-2.443378232E-2,1.617822610E-2,-2.250304818E-2
3.073994600E1,-5.106460676E-2,-3.282249346E-2,-4.866783321E-2
3.075984094E1,-7.935985923E-2,-5.685681105E-2,-3.581846133E-2
3.077971417E1,-6.171693653E-2,-3.974650800E-2,-1.291595027E-2
3.079959756E1,-4.680367559E-2,-2.376801148E-2,9.453942999E-3
3.081949251E1,-5.372769013E-2,-6.191667169E-3,2.489982173E-2
3.083939553E1,-5.745600536E-2,2.330197254E-3,3.075860441E-2
3.085929402E1,-5.798862129E-2,-1.045259926E-2,4.893414304E-2
3.087918683E1,-5.266245827E-2,-2.323539555E-2,8.461944759E-2
3.089908194E1,-4.680367559E-2,-3.015941009E-2,1.309570819E-1
3.091896058E1,-2.762948163E-2,-2.802894451E-2,1.656437367E-1
3.093884584E1,-1.111837011E-2,-9.919982404E-3,1.704372764E-1
3.095873667E1,-7.922670804E-3,2.363485843E-2,1.640458852E-1
3.097861449E1,-2.596505452E-3,5.565842614E-2,1.597849578E-1
3.099852016E1,-1.531272428E-3,7.376738638E-2,1.565892547E-1
3.101841360E1,4.327509087E-3,5.352795869E-2,1.587197185E-1
3.103830496E1,1.071890723E-2,2.842840552E-2,1.736329794E-1
3.105819298E1,3.209014609E-2,5.459319428E-2,1.693720520E-1
3.107810511E1,4.913387448E-2,8.495233208E-2,1.555240154E-1
3.109795553E1,4.327509180E-2,7.323476672E-2,1.438064575E-1
3.111784897E1,1.711030491E-2,-2.430062927E-2,1.288266182E-1
3.113774412E1,-2.922733128E-2,-1.725011766E-1,1.165764406E-1
3.115764579E1,-8.468602598E-2,-2.577863932E-1,1.107176542E-1
3.117751542E1,-1.613828093E-1,-3.201025128E-1,9.154346585E-2
3.119742714E1,-2.600499988E-1,-5.168377757E-1,7.876066864E-2
3.121730527E1,-4.209667742E-1,-8.179658055E-1,6.917356700E-2
3.123720516E1,-6.347457170E-1,-1.087669492E0,4.673709720E-2
3.125710350E1,-8.830781579E-1,-1.263033509E0,2.649767138E-2
3.127697542E1,-1.175151706E0,-1.382938743E0,3.981308267E-2
3.129687048E1,-1.528010249E0,-1.419156671E0,1.256309152E-1
3.131673542E1,-1.863292336E0,-1.251249313E0,2.903425694E-1
3.133663261E1,-2.060493469E0,-7.571809292E-1,5.520570278E-1
3.135655110E1,-2.074341536E0,2.470009029E-2,9.448617101E-1
3.137644324E1,-2.043449879E0,9.483903050E-1,1.456040382E0
3.139631574E1,-1.932066441E0,2.203101635E0,2.063622713E0
3.141621089E1,-1.449116349E0,4.016860485E0,2.788513660E0
3.143606808E1,-1.003582716E0,6.075889587E0,3.697823286E0
3.145598365E1,-9.662329555E-1,8.185517311E0,4.895478249E0
3.147587542E1,-1.183140993E0,1.047896385E1,6.100589752E0
3.149575834E1,-1.985328078E0,1.259604740E1,6.911830902E0
3.151566089E1,-3.513471365E0,1.386141109E1,7.366485596E0
3.153551876E1,-5.755786896E0,1.398184967E1,7.247579098E0
3.155543652E1,-8.293904305E0,1.218619919E1,6.515231609E0
3.157530938E1,-1.006771660E1,7.084864616E0,5.674695969E0
3.159518964E1,-9.346088409E0,1.260237217E0,5.578226089E0
3.161509011E1,-4.132771015E0,-1.329610586E0,5.225367546E0
3.163498183E1,2.198174953E0,-1.452778101E0,1.964489460E0
3.165488600E1,3.899485111E0,-2.042783976E0,-4.571114540E0
3.167475490E1,3.089908123E0,-5.896397591E0,-6.855573654E0
3.169465657E1,3.429917097E0,-1.034481049E1,-4.222051144E0
3.171454813E1,2.600033998E0,-1.103927612E1,-4.015196323E0
3.173445287E1,1.829337955E0,-9.299551010E0,-5.606787682E0
3.175432313E1,1.545253634E0,-7.894042492E0,-6.222891808E0
3.177421355E1,1.456240177E0,-6.979406834E0,-5.843402386E0
3.179409376E1,1.343791485E0,-6.129284382E0,-5.208590031E0
3.181399766E1,1.285137057E0,-5.234888077E0,-4.904266357E0
3.183388813E1,1.415761232E0,-4.529237747E0,-4.908527374E0
3.185378553E1,1.568688750E0,-4.306404114E0,-4.768915176E0
3.187368246E1,1.434935451E0,-4.209401608E0,-4.435763359E0
3.189354100E1,1.065033317E0,-3.850218296E0,-4.042426109E0
3.191342834E1,8.694298863E-1,-3.309212923E0,-3.500355721E0
3.193339975E1,7.841446400E-1,-2.515015125E0,-3.018537521E0
3.195324282E1,6.434007287E-1,-1.503376722E0,-2.652896166E0
3.197309751E1,6.125090122E-1,-8.531184793E-1,-2.252568483E0
3.199301365E1,5.896064639E-1,-7.859422565E-1,-1.807034612E0
3.201290251E1,5.325499177E-1,-7.076476216E-1,-1.382739067E0
3.203277001E1,5.277563930E-1,-3.238308430E-1,-1.109307051E0
3.205267516E1,6.487269402E-1,-2.163754590E-2,-8.475925922E-1
3.207257516E1,7.041856050E-1,8.655018359E-2,-5.310186744E-1
3.209245449E1,6.604444981E-1,2.778926790E-1,-3.204354048E-1
3.211234730E1,5.794867873E-1,6.840127707E-1,-1.733666807E-1
3.213223756E1,5.501262546E-1,1.125884771E0,-3.741630912E-2
3.215211042E1,4.696346223E-1,1.371620655E0,5.106460676E-2
3.217201058E1,3.790232241E-1,1.261302471E0,6.970618665E-2
3.219188600E1,3.007285893E-1,8.066477180E-1,7.929328084E-2
3.221177709E1,2.846835256E-1,3.360144496E-1,4.513924941E-2
3.223166042E1,3.747622967E-1,2.485987544E-1,-1.611164957E-2
3.225158631E1,4.504604042E-1,4.948007464E-1,-1.664426550E-2
3.227146240E1,4.552539587E-1,7.181667686E-1,-1.078548469E-2
3.229134725E1,4.142425060E-1,8.226261735E-1,-7.057168987E-3
3.231122975E1,3.401422203E-1,7.756893635E-1,-5.991935730E-3
3.233114235E1,2.740311921E-1,6.350120306E-1,-3.741630912E-2
3.235099600E1,2.308892608E-1,4.809527099E-1,-7.955959439E-2
3.237090423E1,1.978004575E-1,3.322861195E-1,-9.926640242E-2
3.239082048E1,1.764957905E-1,1.531938314E-1,-1.008642539E-1
3.241071334E1,1.461366564E-1,3.928046674E-3,-8.062482625E-2
3.243059167E1,1.189732105E-1,-1.471353136E-2,-6.145063043E-2
3.245049933E1,1.066564545E-1,8.708280325E-2,-7.902697474E-2
3.247039667E1,1.071890742E-1,1.484002769E-1,-5.985277891E-2
3.249025980E1,9.174319357E-2,9.081111848E-2,-1.451379992E-2
3.251015110E1,5.765573680E-2,-2.003969625E-2,-3.861469682E-3
3.253003376E1,1.018629037E-2,-1.021292135E-1,-1.504641678E-2
3.254990647E1,-5.106460676E-2,-1.303578913E-1,-3.315537795E-2
3.256979923E1,-8.415340632E-2,-1.170424819E-1,-3.901416063E-2
3.258970225E1,-7.509893179E-2,-8.721595258E-2,-2.410089783E-2
3.260959834E1,-6.011908874E-2,-7.177007198E-2,1.105179265E-2
3.262948417E1,-6.278216839E-2,-7.922670245E-2,1.637795754E-2
3.264938641E1,-8.894696087E-2,-1.234338731E-1,2.596505545E-2
3.266925266E1,-1.001319066E-1,-1.618488431E-1,4.893414304E-2
3.268912985E1,-1.059906855E-1,-1.394123733E-1,6.331478804E-2
3.270906079E1,-1.219691783E-1,-8.455286920E-2,7.769543678E-2
3.272893287E1,-1.480673850E-1,-2.962679416E-2,8.728253096E-2
3.274881667E1,-1.374150664E-1,-1.897446252E-2,9.580439329E-2
3.276872996E1,-1.251648813E-1,-9.680305421E-2,9.580439329E-2
3.278861694E1,-1.501978636E-1,-2.071212530E-1,9.633701295E-2
3.280849834E1,-1.870149672E-1,-2.711018026E-1,1.192395240E-1
3.282838844E1,-2.029934675E-1,-3.014609516E-1,1.459369212E-1
3.284827652E1,-1.864823550E-1,-3.179720640E-1,1.517957002E-1
3.286816636E1,-1.768952608E-1,-3.248960674E-1,1.464695334E-1
3.288806412E1,-1.656437367E-1,-3.862135410E-1,1.491326243E-1
3.290794240E1,-1.496652365E-1,-5.269574523E-1,1.464695334E-1
3.292784423E1,-1.459369212E-1,-6.431344151E-1,1.261635423E-1
3.294772829E1,-1.384802908E-1,-6.004585624E-1,1.059241071E-1
3.296759542E1,-1.182408631E-1,-4.021920562E-1,6.597787142E-2
3.298751371E1,-8.202294260E-2,-1.858165860E-1,1.904104091E-2
3.300741027E1,-2.017285116E-2,1.264964230E-3,3.062544856E-3
3.302727370E1,4.380770773E-2,1.361500919E-1,-5.991935730E-3
3.304718527E1,8.109086752E-2,2.155099511E-1,-1.557903271E-2
3.306708996E1,1.034607589E-1,2.757622004E-1,-3.049229458E-2
3.308695344E1,1.066564545E-1,3.205685616E-1,-3.954677656E-2
3.310683792E1,7.043853402E-2,2.970668674E-1,-1.717688330E-2
3.312671584E1,1.125152409E-2,2.107164115E-1,4.127778113E-3
3.314662845E1,-4.627105966E-2,1.420088708E-1,-1.131810062E-2
3.316651949E1,-1.113168523E-1,8.175663650E-2,-2.356828004E-2
3.318640860E1,-2.013956159E-1,-4.560529068E-2,-2.729659714E-2
3.320630428E1,-3.202356696E-1,-2.471340597E-1,-5.133091658E-2
3.322617709E1,-4.716319144E-1,-4.043225050E-1,-1.104513481E-1
3.324608214E1,-6.709636450E-1,-4.619116783E-1,-1.808233112E-1
3.326595813E1,-9.001219273E-1,-4.294220507E-1,-2.538583577E-1
3.328585907E1,-1.161303759E0,-1.772947162E-1,-3.172397017E-1
3.330575360E1,-1.436866164E0,5.987941027E-1,-2.948698103E-1
3.332562667E1,-1.538129926E0,1.992052317E0,-9.180977196E-2
3.334552235E1,-1.597316861E0,3.553683996E0,2.690379024E-1
3.336546803E1,-1.706037283E0,5.082359791E0,7.876066566E-1
3.338531808E1,-1.844650745E0,6.577414513E0,1.592456818E0
3.340517157E1,-2.065819740E0,8.066077232E0,2.325869799E0
3.342508870E1,-2.470874548E0,9.418324471E0,2.855690002E0
3.344497506E1,-3.077458143E0,9.939023972E0,3.375856638E0
3.346486287E1,-3.902547836E0,9.467857361E0,3.899285555E0
3.348473985E1,-4.859792709E0,9.039900780E0,4.112998009E0
3.350465131E1,-6.108645439E0,9.370322227E0,3.887035370E0
3.352453360E1,-7.703365803E0,9.428977013E0,3.561340332E0
3.354445292E1,-9.552876472E0,6.526283264E0,3.016673326E0
3.356430136E1,-1.111723804E1,-1.804904193E-1,2.884984016E0
3.358418230E1,-1.041098881E1,-3.844825506E0,3.645560265E0
3.360408282E1,-5.208922863E0,-1.214498758E0,4.833095551E0
3.362398923E1,1.172155738E0,2.326202542E-1,3.783108473E0
3.364388444E1,3.688968420E0,7.277538776E-1,-2.096445084E0
3.366377444E1,3.715066671E0,-1.541259050E0,-4.731032848E0
3.368366011E1,3.393699169E0,-4.246218681E0,-3.037178993E0
3.370351912E1,3.111212730E0,-4.071919918E0,-2.876728296E0
3.372341839E1,3.068536997E0,-3.800618172E0,-3.249293566E0
3.374332964E1,3.079788446E0,-4.717916965E0,-3.408679008E0
3.376321850E1,3.023797035E0,-5.696999550E0,-4.069589615E0
3.378308110E1,2.823400021E0,-6.651115417E0,-4.641486645E0
3.380296584E1,2.478530884E0,-7.647307873E0,-4.684162617E0
3.382288568E1,2.277601242E0,-8.234650612E0,-4.316923618E0
3.384277344E1,1.867686391E0,-7.883922577E0,-4.193755627E0
3.386266178E1,1.430674553E0,-6.970884800E0,-4.235898972E0
3.388255548E1,1.184938550E0,-6.183145046E0,-4.217790127E0
3.390247173E1,1.015965939E0,-5.734881878E0,-3.990695715E0
3.392231626E1,9.242894053E-1,-5.239748001E0,-3.324459076E0
3.394223042E1,8.854084015E-1,-4.203542709E0,-2.697103500E0
3.396211459E1,1.045326471E0,-2.832720995E0,-2.599568129E0
3.398198319E1,1.259038806E0,-1.881268144E0,-2.344777584E0
3.400189756E1,1.216362953E0,-1.383471370E0,-1.769152284E0
3.402177334E1,9.440627694E-1,-7.651702166E-1,-1.364097476E0
3.404167011E1,7.686987519E-1,3.928046674E-3,-1.294258118E0
3.406155574E1,7.537189126E-1,4.271584451E-1,-1.286268830E0
3.408145303E1,6.802178621E-1,3.039908707E-1,-1.042130828E0
3.410130558E1,4.792217016E-1,1.334870160E-1,-7.314156294E-1
3.412120365E1,2.655093372E-1,2.101837844E-1,-5.475297570E-1
3.414109584E1,8.801487833E-2,3.807542324E-1,-4.062532485E-1
3.416099308E1,3.901416063E-2,4.681699276E-1,-2.927393615E-1
3.418089381E1,5.659050494E-2,4.639089704E-1,-1.983996481E-1
3.420078266E1,5.286218971E-2,4.521914124E-1,-3.581846133E-2
3.422066412E1,5.872096866E-2,4.612458944E-1,7.290188223E-2
3.424057402E1,2.175738513E-1,3.386775255E-1,5.905385688E-2
3.426044282E1,4.222317338E-1,2.117816359E-1,-1.557903271E-2
3.428034511E1,4.669715166E-1,8.921326697E-2,-2.796236658E-3
3.430024016E1,4.430037737E-1,1.611830741E-1,2.596505545E-2
3.432010876E1,3.710339665E-1,3.413406014E-1,3.608476743E-2
3.434000928E1,2.452699095E-1,3.754280508E-1,1.691057347E-2
3.435989511E1,1.493323594E-1,2.310224175E-1,-5.825493112E-2
3.437979673E1,1.296255440E-1,1.436067224E-1,-1.045925692E-1
3.439970412E1,1.115165800E-1,1.766289473E-1,-1.104513481E-1
3.441954589E1,1.029281393E-1,2.773600519E-1,-1.040599495E-1
3.443945610E1,9.973244369E-2,3.466667831E-1,-7.103772461E-2
3.445937277E1,7.256899774E-2,2.981320918E-1,-4.061200842E-2
3.447925579E1,3.209014609E-2,1.547916681E-1,-3.741630912E-2
3.449911996E1,-1.964023337E-2,4.181039706E-2,-2.729659714E-2
3.451902876E1,-5.905385688E-2,2.629793994E-2,-1.930734888E-2
3.453891792E1,-6.917356700E-2,5.619104207E-2,7.323476952E-3
3.455879313E1,-7.563154399E-2,9.347419441E-2,3.022598661E-2
3.457867407E1,-6.704310328E-2,8.868064731E-2,4.946675897E-2
3.459857022E1,-7.776200771E-2,9.187635034E-2,4.726971686E-2
3.461847272E1,-1.054580659E-1,5.565842614E-2,1.158440951E-2
3.463837647E1,-1.097190008E-1,3.055887297E-2,2.529928461E-3
3.465827006E1,-9.427312016E-2,5.885412544E-2,4.660394508E-3
3.467813740E1,-7.130403817E-2,5.086487532E-2,1.464695437E-3
3.469803839E1,-5.905385688E-2,2.310224064E-2,-1.331541280E-4
3.471790282E1,-6.544525176E-2,3.375457227E-2,-4.926702939E-3
3.473781370E1,-6.438001990E-2,4.127778113E-2,-8.655018173E-3
3.475770173E1,-6.491263956E-2,2.256962471E-2,-2.796236658E-3
3.477757594E1,-5.585815758E-2,2.862813650E-3,3.994623839E-4
3.479749277E1,-4.147751257E-2,6.058512721E-3,1.318225823E-2
3.481739527E1,-3.189041466E-2,-8.854749613E-3,2.649767138E-2
3.483725115E1,-3.561872989E-2,-2.536586113E-2,3.342168778E-2
3.485713287E1,-4.414059222E-2,-1.364829857E-2,2.117150649E-2
3.487704209E1,-4.999937490E-2,-5.659050308E-3,2.117150649E-2
3.489694079E1,-5.053199083E-2,-3.175725788E-2,4.247616604E-2
3.491683068E1,-5.106460676E-2,-9.893351793E-2,6.704310328E-2
3.493670975E1,-4.680367559E-2,-1.783599555E-1,6.597787142E-2
3.495662683E1,-5.266245827E-2,-2.412752807E-1,5.266245827E-2
3.497650683E1,-6.065170467E-2,-2.647103965E-1,5.479292199E-2
3.499642277E1,-6.917356700E-2,-2.956021726E-1,6.597787142E-2
3.501628240E1,-9.001219273E-2,-3.473325372E-1,7.077141851E-2
3.503615678E1,-1.225017980E-1,-3.776916862E-1,8.035851270E-2
3.505607370E1,-1.544587910E-1,-4.358134568E-1,1.000653282E-1
3.507594615E1,-1.981999129E-1,-6.117100716E-1,1.219026074E-1
3.509584970E1,-2.776263654E-1,-8.232919574E-1,1.438064575E-1
3.511569324E1,-3.682377338E-1,-9.698280692E-1,1.320223212E-1
3.513562287E1,-4.812190235E-1,-1.074886680E0,1.133807376E-1
3.515551444E1,-6.384740472E-1,-1.166030645E0,8.781515062E-2
3.517538397E1,-7.759556770E-1,-1.176150441E0,2.596505545E-2
3.519526110E1,-9.006544948E-1,-1.010373473E0,-3.741630912E-2
3.521514709E1,-1.008908868E0,-6.990591884E-1,-3.901416063E-2
3.523506001E1,-1.128814101E0,-1.303578913E-1,8.994561434E-2
3.525496068E1,-1.183673620E0,9.276182055E-1,4.502606690E-1
3.527482574E1,-1.050985575E0,2.404031277E0,9.150351882E-1
3.529471813E1,-9.427977800E-1,3.892161846E0,1.386733651E0
3.531463704E1,-9.076451063E-1,5.190547466E0,1.951174021E0
3.533453584E1,-9.731569290E-1,6.314102173E0,2.568409920E0
3.535443381E1,-1.237534523E0,7.232998848E0,3.163209438E0
3.537428209E1,-1.620219469E0,8.044773102E0,3.669061899E0
3.539415912E1,-2.144713640E0,8.686509132E0,4.194022179E0
3.541406022E1,-3.043903351E0,9.012137413E0,4.602339268E0
3.543395746E1,-4.290558815E0,9.027649879E0,4.638557434E0
3.545385032E1,-5.981216908E0,8.705683708E0,4.568717957E0
3.547372928E1,-7.889381886E0,7.176541328E0,4.601274014E0
3.549361115E1,-9.222920418E0,3.109215498E0,4.482900143E0
3.551350282E1,-8.938836098E0,-1.927672267E0,4.855465412E0
3.553343620E1,-6.374620914E0,-2.951560974E0,5.622499466E0
3.555330063E1,-1.868085861E0,-5.141080618E-1,4.993546009E0
3.557319355E1,1.718487144E0,1.411034346E0,1.816888094E0
3.559310058E1,2.459356785E0,9.324117899E-1,-3.715133429E0
3.561298339E1,2.971534014E0,-3.155153751E0,-5.353062153E0
3.563286548E1,3.195432663E0,-7.157433987E0,-3.686904669E0
3.565272787E1,2.780724287E0,-7.009832382E0,-3.766331196E0
3.567262709E1,2.574468374E0,-4.794680595E0,-4.495482922E0
3.569254626E1,2.576066256E0,-3.361409426E0,-4.249747276E0
3.571245673E1,2.582457781E0,-2.845503807E0,-4.078111649E0
3.573234657E1,2.577131510E0,-3.169001579E0,-4.295552254E0
3.575220058E1,2.457226276E0,-4.238761902E0,-4.449079037E0
3.577207152E1,2.198707581E0,-5.298336029E0,-4.451209545E0
3.579198339E1,1.936993122E0,-5.620835304E0,-4.328640938E0
3.581183850E1,1.739791870E0,-5.279161930E0,-4.161266327E0
3.583175537E1,1.515427113E0,-4.810658932E0,-3.833440781E0
3.585164287E1,1.094327211E0,-4.503139496E0,-3.355883598E0
3.587151829E1,7.084465623E-1,-3.988765001E0,-3.015874386E0
3.589144136E1,6.007914543E-1,-3.197762966E0,-2.763214350E0
3.591130970E1,6.807504892E-1,-2.428132057E0,-2.349571228E0
3.593120917E1,7.889382243E-1,-1.864224315E0,-1.893851161E0
3.595110964E1,7.073813081E-1,-1.419689298E0,-1.584733844E0
3.597098074E1,4.073184729E-1,-9.463929534E-1,-1.381141186E0
3.599084636E1,2.207695395E-1,-4.667052329E-1,-1.196190119E0
3.601075834E1,2.431394309E-1,-2.323539555E-2,-9.776841998E-1
3.603064662E1,2.569874525E-1,2.954690158E-1,-7.202306986E-1
3.605054344E1,1.866155118E-1,4.644415975E-1,-4.457334578E-1
3.607049787E1,4.487293959E-2,7.176342010E-1,-2.341515273E-1
3.609031470E1,-6.704310328E-2,1.109906197E0,-1.152448952E-1
3.611019136E1,-3.721657768E-2,1.469156027E0,-7.050511241E-2
3.613008313E1,1.397452503E-1,1.467025638E0,-6.730940938E-2
3.614997261E1,3.177723289E-1,9.372053146E-1,-8.541837335E-2
3.616985105E1,3.545228541E-1,3.450689316E-1,-4.813521728E-2
3.618976303E1,3.641099632E-1,2.406095117E-1,-1.185071748E-2
3.620964444E1,3.060547709E-1,5.209655166E-1,-9.720250964E-3
3.622953053E1,2.079867423E-1,7.570477724E-1,4.127778113E-3
3.624943308E1,1.087869257E-1,7.639718056E-1,-1.198387123E-3
3.626933563E1,4.380770773E-2,5.459985137E-1,-5.665707961E-2
3.628919667E1,3.315537795E-2,2.187056541E-1,-8.382052183E-2
3.630909303E1,5.286218971E-2,1.085206121E-2,-3.315537795E-2
3.632897511E1,6.884068251E-2,3.641765565E-2,-1.731003635E-3
3.634889162E1,5.765573680E-2,1.217028722E-1,-2.796236658E-3
3.636878266E1,3.102491237E-2,8.495233208E-2,-4.394086078E-3
3.638868949E1,1.338198967E-2,-5.252930522E-2,3.595161485E-3
3.640856397E1,-3.661738476E-3,-1.826208830E-1,7.323476952E-3
3.642845344E1,-1.644453406E-2,-2.252302021E-1,-1.185071748E-2
3.644834438E1,-3.828181326E-2,-2.055234015E-1,-3.368799388E-2
3.646822386E1,-4.999937490E-2,-2.007298470E-1,-2.037258074E-2
3.648812152E1,-4.360797629E-2,-2.497971505E-1,8.921326138E-3
3.650799251E1,-4.467320815E-2,-3.264939189E-1,3.555215150E-2
3.652790350E1,-7.236927003E-2,-3.910070956E-1,4.999937490E-2
3.654779261E1,-1.065233052E-1,-3.989963531E-1,6.544525176E-2
3.656766844E1,-1.304910481E-1,-3.675719798E-1,7.929328084E-2
3.658755292E1,-1.368824393E-1,-3.462673128E-1,1.011305600E-1
3.660744115E1,-1.347519755E-1,-3.131785095E-1,9.740224481E-2
3.662735496E1,-1.256974936E-1,-2.700365782E-1,8.089113235E-2
3.664722480E1,-1.230344176E-1,-2.513949871E-1,7.290188223E-2
3.666714329E1,-1.219691783E-1,-2.353499234E-1,7.769543678E-2
3.668702694E1,-1.177082509E-1,-1.794251949E-1,7.982590050E-2
3.670692454E1,-1.086537689E-1,-1.143793985E-1,7.503235340E-2
3.672679829E1,-1.001319066E-1,-1.085206121E-1,7.769543678E-2
3.674668084E1,-9.959928691E-2,-1.287600398E-1,8.781515062E-2
3.676660720E1,-9.906667471E-2,-1.223686412E-1,8.781515062E-2
3.678650032E1,-1.118494645E-1,-1.133141592E-1,8.302159607E-2
3.680637730E1,-1.368824393E-1,-1.090532318E-1,7.982590050E-2
3.682626740E1,-1.597849578E-1,-1.399449855E-1,7.290188223E-2
3.684614126E1,-1.838192791E-1,-2.092517167E-1,7.503235340E-2
3.686600428E1,-1.928737611E-1,-2.204366624E-1,8.089113235E-2
3.688592350E1,-1.918085217E-1,-1.661097705E-1,7.077141851E-2
3.690581574E1,-1.976673007E-1,-1.426080763E-1,4.620448127E-2
3.692571110E1,-2.211024314E-1,-1.607836038E-1,2.170412242E-2
3.694557006E1,-2.354830801E-1,-2.065886259E-1,1.158440951E-2
3.696549131E1,-2.402766198E-1,-2.625799477E-1,1.371487509E-2
3.698540621E1,-2.450701743E-1,-2.668408751E-1,-1.331541280E-4
3.700527209E1,-2.509289682E-1,-2.310889959E-1,-1.557903271E-2
3.702515886E1,-2.675066292E-1,-2.428731322E-1,-3.209014609E-2
3.704503959E1,-2.829525173E-1,-3.425389826E-1,-6.251586229E-2
3.706493579E1,-2.978657782E-1,-4.997274280E-1,-9.607070684E-2
3.708483360E1,-3.186378181E-1,-6.319494843E-1,-1.099187359E-1
3.710471386E1,-3.362141848E-1,-6.378082633E-1,-1.029947177E-1
3.712461746E1,-3.436708152E-1,-5.791538954E-1,-9.820117056E-2
3.714451037E1,-3.517266214E-1,-6.250254512E-1,-1.072556525E-1
3.716441949E1,-3.874119222E-1,-7.896705270E-1,-1.099187359E-1
3.718426688E1,-4.337495863E-1,-9.107076526E-1,-1.045925692E-1
3.720413881E1,-5.035889149E-1,-9.447951317E-1,-1.013968661E-1
3.722404063E1,-6.202985048E-1,-9.368058443E-1,-1.040599495E-1
3.724392959E1,-7.642381191E-1,-8.824124336E-1,-1.258972287E-1
3.726383344E1,-9.225583673E-1,-7.390719652E-1,-1.013968661E-1
3.728370876E1,-1.107509494E0,-3.686372042E-1,-7.057168987E-3
3.730361105E1,-1.297786713E0,2.240318209E-1,1.256309152E-1
3.732350334E1,-1.367559433E0,8.983243108E-1,3.521926701E-1
3.734345209E1,-1.260437012E0,1.774545074E0,7.732260227E-1
3.736325844E1,-1.062170506E0,2.946634293E0,1.352646232E0
3.738317084E1,-9.545153379E-1,4.266857624E0,2.039654970E0
3.740306214E1,-8.798824549E-1,5.627093315E0,2.795437813E0
3.742295844E1,-9.646350741E-1,7.272479057E0,3.619462013E0
3.744282959E1,-1.442192316E0,9.169925690E0,4.493086338E0
3.746271824E1,-2.401101828E0,1.062183762E1,5.357589722E0
3.748260370E1,-3.674920797E0,1.103647995E1,6.142666340E0
3.750252891E1,-5.176433086E0,1.099387074E1,6.478480816E0
3.752243475E1,-6.941191673E0,1.184132957E1,5.775959969E0
3.754239720E1,-9.136037827E0,1.240949821E1,4.381103516E0
3.756215694E1,-1.134320068E1,8.714737892E0,3.108350039E0
3.758209756E1,-1.276049328E1,1.582669973E0,2.446840286E0
3.760195256E1,-1.017597103E1,-5.871431231E-1,3.680779457E0
3.762185313E1,-2.584987640E0,4.873441160E-1,5.394872665E0
3.764175162E1,4.308867455E0,2.203101635E0,3.117937088E0
3.766162990E1,5.625895023E0,3.223262072E0,-4.134102821E0
3.768151964E1,4.314193726E0,-2.086458683E0,-4.907994747E0
3.770141610E1,3.685772896E0,-7.353569984E0,-2.980122566E0
3.772128006E1,2.783387423E0,-7.022615433E0,-4.362728596E0
3.774117449E1,2.646438360E0,-6.055716515E0,-5.217112064E0
3.776110235E1,3.020601511E0,-6.425086021E0,-4.649476051E0
3.778096397E1,3.426721573E0,-6.782738209E0,-4.363261223E0
3.780086678E1,3.547225952E0,-6.888795376E0,-4.821644306E0
3.782073548E1,3.512006760E0,-7.420213699E0,-5.200067997E0
3.784064407E1,3.362274885E0,-8.252759933E0,-5.241146088E0
3.786054829E1,2.952359915E0,-8.739371300E0,-5.162252426E0
3.788045272E1,2.406561136E0,-8.447830200E0,-5.180361271E0
3.790030053E1,1.973810196E0,-7.441518307E0,-5.019378185E0
3.792019949E1,1.766955256E0,-5.886278152E0,-4.549277306E0
3.794009678E1,1.761096478E0,-3.992493391E0,-4.027513027E0
3.795998027E1,1.862892866E0,-2.307694197E0,-3.540834665E0
3.797988339E1,1.992984414E0,-1.410634875E0,-2.952959061E0
3.799976548E1,1.826142311E0,-9.224252105E-1,-2.271276474E0
3.801962662E1,1.527144670E0,-2.396774292E-1,-1.808632493E0
3.803951282E1,1.328345537E0,2.283593267E-1,-1.447784781E0
3.805943756E1,1.098588109E0,1.499981284E-1,-9.057143927E-1
3.807934199E1,6.839461923E-1,1.649113894E-1,-3.615134656E-1
3.809917792E1,3.017938435E-1,6.669690013E-1,-5.985277891E-2
3.811909657E1,1.013302878E-1,1.194658875E0,1.773612946E-1
3.813895355E1,8.055824786E-3,1.445188284E0,4.758262634E-1
3.815887001E1,2.463351376E-2,1.456905842E0,6.155049801E-1
3.817875798E1,2.133129090E-1,1.053382277E0,5.770899653E-1
3.819863079E1,3.625121117E-1,4.601806700E-1,5.131760240E-1
3.821852287E1,4.392754734E-1,1.792920381E-1,4.342821836E-1
3.823843194E1,4.728302956E-1,3.317535222E-1,3.308880031E-1
3.825832355E1,4.163729548E-1,7.192320228E-1,2.087856680E-1
3.827820480E1,3.241637349E-1,9.926640391E-1,1.288266182E-1
3.829808386E1,2.255630940E-1,9.031178951E-1,8.568467945E-2
3.831798386E1,1.834198087E-1,5.475963354E-1,3.928046674E-2
3.833788641E1,1.626477689E-1,2.144447267E-1,-2.782921307E-2
3.835774865E1,1.301581562E-1,7.536523789E-2,-6.464632601E-2
3.837765126E1,9.760197252E-2,1.211702600E-1,-5.133091658E-2
3.839754975E1,5.126433820E-2,1.979336143E-1,-2.729659714E-2
3.841745652E1,1.284937374E-2,1.531938314E-1,-1.398118306E-2
3.843731011E1,-2.816209756E-2,4.820179567E-2,-3.209014609E-2
3.845721277E1,-7.616416365E-2,-3.175725788E-2,-6.251586229E-2
3.847712277E1,-1.198387146E-1,-7.443315536E-2,-8.062482625E-2
3.849699048E1,-1.581871063E-1,-1.292926520E-1,-7.476603985E-2
3.851688813E1,-1.747647971E-1,-1.991319954E-1,-7.902697474E-2
3.853678272E1,-1.800909638E-1,-2.471340597E-1,-9.447285533E-2
3.855666459E1,-1.838192791E-1,-2.337520719E-1,-1.168427467E-1
3.857659110E1,-1.838192791E-1,-1.948710680E-1,-1.211036816E-1
3.859646777E1,-1.715690941E-1,-1.884796619E-1,-1.152448952E-1
3.861632933E1,-1.422086060E-1,-2.225671262E-1,-9.021192044E-2
3.863621865E1,-1.246322617E-1,-2.625799477E-1,-5.505923182E-2
3.865613454E1,-1.139799356E-1,-2.854824364E-1,-3.528584540E-2
3.867601386E1,-9.906667471E-2,-2.902759910E-1,-1.504641678E-2
3.869590964E1,-9.107742459E-2,-2.668408751E-1,4.660394508E-3
3.871579423E1,-7.343450189E-2,-1.879470497E-1,1.211702544E-2
3.873568766E1,-5.159722641E-2,-1.058575287E-1,7.856093347E-3
3.875555136E1,-4.254274443E-2,-1.047922969E-1,2.436720580E-2
3.877544506E1,-5.266245827E-2,-1.415428370E-1,6.864095479E-2
3.879532772E1,-5.319507420E-2,-9.733566642E-2,1.075219586E-1
3.881524777E1,-2.975994721E-2,1.564561017E-2,9.900009632E-2
3.883513662E1,-1.910761744E-2,8.441971987E-2,8.941299468E-2
3.885503266E1,-2.443378232E-2,9.986559302E-2,7.822804898E-2
3.887489595E1,-1.964023337E-2,1.452045739E-1,5.745600536E-2
3.889481053E1,6.990591530E-3,2.304897904E-1,6.065170467E-2
3.891468423E1,1.711030491E-2,2.629793882E-1,6.757572293E-2
3.893461485E1,1.125152409E-2,2.331528813E-1,5.692338943E-2
3.895448673E1,1.231675688E-2,2.454030514E-1,3.501953557E-2
3.897434730E1,2.623136342E-2,2.816209793E-1,2.170412242E-2
3.899426068E1,3.954677656E-2,2.438052148E-1,1.744319126E-2
3.901415246E1,3.102491237E-2,1.713027805E-1,1.904104091E-2
3.903403360E1,4.167724028E-2,1.819551140E-1,1.158440951E-2
3.905391115E1,8.428656310E-2,2.501966059E-1,-3.861469682E-3
3.907380261E1,1.408104897E-1,2.944037914E-1,6.258244161E-3
3.909371464E1,1.711696386E-1,2.629793882E-1,1.478010789E-2
3.911359980E1,1.834198087E-1,1.558569074E-1,3.448691964E-2
3.913349063E1,1.914090663E-1,9.081111848E-2,5.692338943E-2
3.915343230E1,2.058562785E-1,6.737598777E-2,7.876066864E-2
3.917327524E1,2.020613849E-1,-6.191667169E-3,9.314130992E-2
3.919313124E1,1.653108448E-1,-1.447385401E-1,1.005979404E-1
3.921305098E1,7.736254483E-2,-3.147763610E-1,1.032610238E-1
3.923292233E1,-1.804238372E-2,-4.331503808E-1,1.021957919E-1
3.925281795E1,-1.129147038E-1,-5.232291222E-1,9.740224481E-2
3.927272098E1,-1.731669456E-1,-6.676347852E-1,1.091198102E-1
3.929259420E1,-2.312221378E-1,-1.001319051E0,1.320223212E-1
3.931249467E1,-3.484643400E-1,-1.523616076E0,1.438064575E-1
3.933242118E1,-5.222305059E-1,-1.892985702E0,1.752308309E-1
3.935227998E1,-7.392051220E-1,-1.841854453E0,2.349504530E-1
3.937216874E1,-9.609067440E-1,-1.403710842E0,3.639102280E-1
3.939208743E1,-1.163966775E0,-7.491917014E-1,6.495923996E-1
3.941193316E1,-1.401713490E0,3.280251920E-1,1.050386310E0
3.943183405E1,-1.578142762E0,2.033063889E0,1.516758680E0
3.945172170E1,-1.669819355E0,4.222117901E0,1.973543882E0
3.947161910E1,-1.790257215E0,6.672286987E0,2.330130577E0
3.949149827E1,-2.114354372E0,9.194425583E0,2.634987116E0
3.951141108E1,-2.843439817E0,1.155351734E1,2.876994610E0
3.953127098E1,-3.741031885E0,1.276608562E1,3.125393629E0
3.955118332E1,-4.665254593E0,1.234878063E1,3.694627523E0
3.957107519E1,-5.658783913E0,1.163880253E1,4.353407860E0
3.959094889E1,-7.260961056E0,1.196283340E1,4.163662910E0
3.961082436E1,-9.267726898E0,1.133554363E1,3.053423882E0
3.963073874E1,-1.090139484E1,6.296525955E0,2.298706293E0
3.965063446E1,-1.059327602E1,8.199630976E-1,3.116339207E0
3.967051394E1,-6.567028522E0,4.804200828E-1,4.974371910E0
3.969043941E1,3.475988507E-1,-1.195324659E0,5.783416271E0
3.971030134E1,4.388294220E0,-2.604561329E0,2.711683810E-1
3.973019009E1,3.503484726E0,-4.601207256E0,-6.834268570E0
3.975005868E1,4.054609776E0,-8.428656578E0,-5.597200394E0
3.976994092E1,3.831842899E0,-8.622129440E0,-3.892627716E0
3.978985051E1,3.112810612E0,-5.412915230E0,-4.214061737E0
3.980975488E1,3.016340494E0,-3.261210918E0,-4.108470440E0
3.982962926E1,3.247096539E0,-3.227656126E0,-3.566466808E0
3.984950806E1,3.372927189E0,-4.450876236E0,-3.096299410E0
3.986942603E1,3.323859930E0,-5.946463585E0,-2.659820318E0
3.988928400E1,3.248694420E0,-6.863229752E0,-2.387453556E0
3.990919275E1,3.182649851E0,-7.185196400E0,-2.401301622E0
3.992909748E1,3.012079477E0,-7.335461140E0,-2.418877840E0
3.994897103E1,2.707755804E0,-7.166488171E0,-2.379464149E0
3.996883827E1,2.490781069E0,-6.550916672E0,-2.234459400E0
3.998874962E1,2.390582561E0,-5.633085251E0,-1.944516301E0
4.000863098E1,2.230131865E0,-4.270719051E0,-1.769684911E0
4.002853327E1,2.085193634E0,-2.880123854E0,-1.714825392E0
4.004845644E1,1.914090633E0,-2.065153837E0,-1.474415660E0
4.006835384E1,1.625212669E0,-1.382938743E0,-1.192461848E0
4.008819009E1,1.436533332E0,-4.192357659E-1,-1.074154377E0
