"Time (s)","Gyroscope x (rad/s)","Gyroscope y (rad/s)","Gyroscope z (rad/s)"
6.523173500E-2,2.406760901E-1,-4.533898085E-2,6.688331962E-1
8.510251600E-2,4.511927664E-1,5.965305120E-2,5.424699187E-1
1.050200680E-1,6.052520871E-1,1.593189090E-1,3.601819277E-1
1.248942350E-1,7.017222643E-1,1.369490176E-1,2.131131887E-1
1.447884020E-1,7.043853402E-1,5.792204756E-3,1.256974936E-1
1.646815270E-1,5.930019021E-1,-1.487331539E-1,8.355421573E-2
1.845552770E-1,3.984637260E-1,-2.414750159E-1,4.573844373E-2
2.044605890E-1,2.326868325E-1,-2.441380918E-1,1.464695437E-3
2.243578290E-1,1.729672104E-1,-2.201703489E-1,-2.356828004E-2
2.442401730E-1,1.665758193E-1,-1.482005417E-1,-5.605788901E-2
2.641184020E-1,1.282274276E-1,-2.030600421E-2,-8.808145672E-2
2.840518910E-1,4.240959138E-2,1.033276021E-1,-1.216362938E-1
3.039143390E-1,-7.123745978E-3,1.401447207E-1,-1.498649716E-1
3.237748080E-1,5.892070010E-2,2.822867595E-2,-1.567889899E-1
3.436857460E-1,2.257628292E-1,-9.813459218E-2,-1.551911384E-1
3.635508500E-1,4.069855809E-1,-1.157109365E-1,-1.216362938E-1
3.835015270E-1,4.816184938E-1,-6.398055702E-2,-3.528584540E-2
4.033548600E-1,4.069855809E-1,5.326165259E-2,3.668396175E-2
4.232611620E-1,2.929390669E-1,2.094514370E-1,4.254274443E-2
4.431621000E-1,2.017950863E-1,2.451367527E-1,2.390116639E-2
4.630654850E-1,9.200949967E-2,1.321554780E-1,3.994623839E-4
4.829985580E-1,-3.754946589E-2,3.129122080E-3,-2.090519853E-2
5.027957460E-1,-1.388131827E-1,-3.894758224E-2,-5.019910634E-2
5.227039750E-1,-2.155765295E-1,-4.054543376E-2,-8.328790963E-2
5.425838180E-1,-2.640446424E-1,-7.523208391E-3,-1.051251814E-1
5.624885060E-1,-2.635120153E-1,5.965305120E-2,-1.024620980E-1
5.823457460E-1,-2.773600519E-1,1.518622786E-1,-1.061904207E-1
6.022493390E-1,-3.189707100E-1,2.206363827E-1,-1.179079786E-1
6.221690790E-1,-3.551886380E-1,2.589847744E-1,-1.397452503E-1
6.420565790E-1,-3.818860352E-1,2.685718834E-1,-2.149107605E-1
6.619412140E-1,-3.829512596E-1,1.966020763E-1,-2.948698103E-1
6.817973080E-1,-4.026580751E-1,1.804238372E-2,-3.588503897E-1
7.016942870E-1,-4.927368462E-1,-2.574535012E-1,-4.424711764E-1
7.215974120E-1,-5.908048749E-1,-6.097793579E-1,-5.395405293E-1
7.414966830E-1,-6.371424794E-1,-1.058042645E0,-6.924680471E-1
7.613791830E-1,-7.298843265E-1,-1.748313665E0,-7.463288903E-1
7.812580890E-1,-8.935307860E-1,-2.673601627E0,-8.065145612E-1
8.011753290E-1,-9.825443029E-1,-3.797688961E0,-1.070359468E0
8.210838710E-1,-9.548482299E-1,-4.907395363E0,-1.438131213E0
8.409416310E-1,-8.477257490E-1,-5.636014938E0,-1.848046184E0
8.608120480E-1,-8.573128581E-1,-5.735680580E0,-2.336788416E0
8.807163710E-1,-9.894683361E-1,-5.321504593E0,-2.997698784E0
9.006091830E-1,-1.031078935E0,-4.808794975E0,-3.648489714E0
9.204916310E-1,-1.022490501E0,-4.491621494E0,-4.336630344E0
9.403820480E-1,-1.332207084E0,-4.485763073E0,-4.948473454E0
9.602689230E-1,-1.990987062E0,-4.392488480E0,-5.591807842E0
9.801535060E-1,-2.857620716E0,-3.866929054E0,-6.569358826E0
1.000065433E0,-3.815997601E0,-2.829725027E0,-7.915147305E0
1.019961058E0,-4.145886898E0,-1.546252370E0,-9.046690941E0
1.039818506E0,-2.931720972E0,-1.621417761E0,-8.779717445E0
1.059721058E0,-6.675682068E-1,-2.336721897E0,-5.734149456E0
1.079617673E0,6.345459819E-1,-9.072456360E-1,-2.191716880E-1
1.099514183E0,5.178363919E-1,2.004036188E0,4.654069424E0
1.119384964E0,3.057218790E-1,4.903001308E0,5.435950756E0
1.139275381E0,2.711018026E-1,5.803789139E0,4.362994671E0
1.159182725E0,3.105154335E-1,4.326843262E0,4.504271030E0
1.179074808E0,4.416056573E-1,2.848832607E0,4.876303673E0
1.198966839E0,5.082492828E-1,2.406427860E0,4.675907135E0
1.218831214E0,6.932004094E-1,2.671870708E0,3.954211473E0
1.238721787E0,1.221422791E0,3.076992273E0,3.004955769E0
1.258624600E0,1.447385430E0,2.971400976E0,2.804558754E0
1.278515589E0,1.258705974E0,2.873332977E0,2.796036959E0
1.298394808E0,9.980567694E-1,3.277389050E0,2.541779041E0
1.318289131E0,8.398030996E-1,4.029443741E0,2.402633190E0
1.338175225E0,6.143065691E-1,4.760193348E0,2.259825230E0
1.358081891E0,3.131785095E-1,5.180161476E0,1.926673651E0
1.377979079E0,1.026618332E-1,5.223370075E0,1.614360690E0
1.397833818E0,1.202381775E-1,4.931828976E0,1.566358566E0
1.417748923E0,3.462007344E-1,4.371117115E0,1.495453954E0
1.437628871E0,5.866104960E-1,3.488970995E0,1.250317216E0
1.457528350E0,7.433329225E-1,2.291848898E0,1.252447724E0
1.477398871E0,8.077794909E-1,1.087270021E0,1.408637524E0
1.497290693E0,6.521888971E-1,1.790257245E-1,1.409702778E0
1.517220746E0,3.973985016E-1,-3.662404418E-1,1.248186827E0
1.537107516E0,3.147763610E-1,-5.916703939E-1,1.078148961E0
1.556942204E0,3.105154335E-1,-5.538545847E-1,9.550479650E-1
1.576855902E0,2.390782386E-1,-4.168390036E-1,8.430653811E-1
1.596740068E0,1.111836955E-1,-3.155752718E-1,7.306166887E-1
1.616651162E0,8.402025700E-2,-3.299559355E-1,6.266899109E-1
1.636541162E0,2.033929378E-1,-4.344153404E-1,5.009258389E-1
1.656428714E0,3.584509194E-1,-4.983958900E-1,4.135101438E-1
1.676295746E0,4.288228750E-1,-4.200347066E-1,3.404751122E-1
1.696175277E0,4.016594291E-1,-2.905423045E-1,2.211024314E-1
1.716079548E0,3.174394369E-1,-2.324205339E-1,1.166430190E-1
1.735952985E0,2.049907744E-1,-1.978004575E-1,8.994561434E-2
1.755881996E0,6.371425092E-2,-1.077216864E-1,1.016631797E-1
1.775757048E0,-7.536523789E-2,5.272903293E-2,1.288931966E-1
1.795628089E0,-1.915422082E-1,1.966020763E-1,1.262301207E-1
1.815539339E0,-2.955355942E-1,2.275604010E-1,1.187734827E-1
1.835416371E0,-3.509277105E-1,2.446041405E-1,1.032610238E-1
1.855302985E0,-3.925383687E-1,3.416069150E-1,6.065170467E-2
1.875225641E0,-4.890085459E-1,4.951336384E-1,5.159722641E-2
1.895120693E0,-6.126421690E-1,6.816825867E-1,6.011908874E-2
1.914992829E0,-7.325474620E-1,7.904028893E-1,-1.344856713E-2
1.934863818E0,-7.667014599E-1,7.408030033E-1,-4.167724028E-2
1.954746318E0,-7.496577501E-1,6.629744172E-1,-2.796236658E-3
1.974667621E0,-7.458628416E-1,6.192998290E-1,6.331478804E-2
1.994550068E0,-7.346779108E-1,5.579823852E-1,1.187734827E-1
2.014420016E0,-6.766226888E-1,4.882096052E-1,1.608501822E-1
2.034330016E0,-6.030550599E-1,4.652405083E-1,1.757634431E-1
2.054219443E0,-5.758916140E-1,4.599143565E-1,1.608501822E-1
2.074110902E0,-5.940005779E-1,3.879445493E-1,1.736329794E-1
2.094027152E0,-5.822830200E-1,2.925396264E-1,1.826874614E-1
2.113880589E0,-5.108458400E-1,3.219000995E-1,1.480673850E-1
2.133753454E0,-4.101147056E-1,4.790885448E-1,7.769543678E-2
2.153663193E0,-3.056553006E-1,5.905385613E-1,7.323476952E-3
2.173531423E0,-2.038589716E-1,5.217644572E-1,-4.860125855E-2
2.193420225E0,-1.047257185E-1,3.165739477E-1,-1.013968661E-1
2.213333350E0,-1.411433797E-2,1.321554780E-1,-1.344190985E-1
2.233214912E0,6.264901906E-2,1.081211492E-1,-1.525280476E-1
2.253129339E0,1.202381775E-1,1.539927423E-1,-1.370821744E-1
2.272996006E0,1.863491982E-1,1.172422096E-1,-9.447285533E-2
2.292878298E0,2.550567389E-1,-2.509955317E-2,-8.861406893E-2
2.312785121E0,2.598502934E-1,-1.967352182E-1,-1.360169351E-1
2.332669339E0,2.342846841E-1,-2.857487500E-1,-1.723014414E-1
2.352534600E0,2.422739416E-1,-2.745638192E-1,-1.840189993E-1
2.372434860E0,2.513284087E-1,-2.969337106E-1,-1.850842386E-1
2.392332100E0,2.177735716E-1,-3.784905970E-1,-2.015953511E-1
2.412237516E0,1.415428370E-1,-4.115128219E-1,-2.154433727E-1
2.432115173E0,-3.395430278E-3,-4.019257426E-1,-2.095845938E-1
2.452044027E0,-1.574547589E-1,-4.418719709E-1,-1.834863871E-1
2.471884548E0,-3.056553006E-1,-6.071162224E-1,-1.765623689E-1
2.491789079E0,-4.591154456E-1,-9.658334851E-1,-2.250304818E-1
2.511695225E0,-6.291532516E-1,-1.463696718E0,-3.246963322E-1
2.531583141E0,-8.780848980E-1,-2.023876190E0,-4.904732406E-1
2.551470746E0,-1.152049541E0,-2.719939470E0,-7.378070354E-1
2.571350381E0,-1.339131117E0,-3.613803148E0,-1.050652623E0
2.591263037E0,-1.333804846E0,-4.444751263E0,-1.620419145E0
2.611119860E0,-1.185604334E0,-5.007061481E0,-2.551033258E0
2.631039600E0,-8.380720615E-1,-5.639210701E0,-3.942693710E0
2.650892881E0,-5.241612196E-1,-6.650316238E0,-5.817304134E0
2.670804131E0,-5.406723619E-1,-8.191708565E0,-7.990845680E0
2.690706683E0,-1.039068222E0,-1.047723293E1,-9.629839897E0
2.710574443E0,-2.603429556E0,-1.252447701E1,-1.066012001E1
2.730467464E0,-4.822309971E0,-1.266788387E1,-1.114992714E1
2.750360850E0,-5.030163288E0,-1.092869186E1,-1.031791401E1
2.770249287E0,-1.778339982E0,-6.486670017E0,-6.999979019E0
2.790119235E0,2.424936295E0,7.824136615E-1,-1.929070473E0
2.810061266E0,2.043316603E0,5.429093361E0,5.076168060E0
2.829935850E0,3.936701715E-1,8.798691750E0,7.200176239E0
2.849819443E0,-6.696987152E-1,1.129260159E1,5.391743660E0
2.869721266E0,-1.261835098E0,1.029168224E1,4.453606129E0
2.889582673E0,-8.621063828E-1,7.205036640E0,4.690820217E0
2.909488714E0,6.797518581E-2,4.213861942E0,4.598078251E0
2.929381996E0,7.593114376E-1,2.269479036E0,4.526641369E0
2.949264131E0,1.036471725E0,1.834530950E0,4.654602051E0
2.969164652E0,8.882712126E-1,2.750764608E0,4.586893559E0
2.989053037E0,4.266923964E-1,3.983572006E0,4.474977493E0
3.008943871E0,-2.956021577E-2,4.889153481E0,4.308135033E0
3.028831735E0,-1.872812808E-1,5.518639565E0,3.897155046E0
3.048721214E0,-6.591129117E-3,5.920498371E0,3.233048916E0
3.068587464E0,3.350157738E-1,5.932216167E0,2.623868704E0
3.088483193E0,4.997274280E-1,5.464245796E0,2.114287853E0
3.108385693E0,4.778901637E-1,4.512859821E0,1.607969284E0
3.128268975E0,5.876757503E-1,3.149960518E0,1.271089315E0
3.148155381E0,9.714259505E-1,1.695984125E0,1.156510234E0
3.168063454E0,1.308838487E0,4.311530590E-1,1.092529655E0
3.187946214E0,1.294457912E0,-4.552539587E-1,8.559147120E-1
3.207841475E0,1.113235116E0,-1.006911516E0,6.453315020E-1
3.227731110E0,1.082809329E0,-1.241395950E0,6.139070988E-1
3.247596110E0,1.113235116E0,-1.094327211E0,6.139070988E-1
3.267496631E0,1.012503982E0,-7.222945690E-1,5.706986189E-1
3.287384131E0,8.184318542E-1,-2.905423045E-1,4.630434811E-1
3.307282568E0,6.447322965E-1,-5.925358739E-3,3.596493006E-1
3.327201891E0,5.503925681E-1,-4.320851341E-2,3.330184817E-1
3.347083766E0,5.594470501E-1,-2.047244757E-1,2.983984053E-1
3.366944548E0,5.066514611E-1,-2.926727831E-1,2.147110254E-1
3.386850641E0,3.808873892E-1,-4.067192972E-1,1.997311860E-1
3.406745121E0,2.758953571E-1,-5.506588817E-1,2.216350436E-1
3.426594496E0,1.890122890E-1,-6.220294833E-1,2.738314569E-1
3.446500589E0,8.721595258E-2,-4.920045137E-1,3.607145250E-1
3.466406996E0,-2.636451647E-2,-1.748979539E-1,4.012599587E-1
3.486277777E0,-1.537264436E-1,1.380142570E-1,3.804213405E-1
3.506179964E0,-2.496639937E-1,2.584521770E-1,3.665733039E-1
3.526087985E0,-2.907420397E-1,2.254299372E-1,4.278907776E-1
3.545942048E0,-3.578517139E-1,2.339518070E-1,4.955996573E-1
3.565840277E0,-4.431369305E-1,2.984649837E-1,4.966649115E-1
3.585719600E0,-4.623111188E-1,3.085846901E-1,4.742284119E-1
3.605634496E0,-4.095821083E-1,2.382127345E-1,4.257603288E-1
3.625519131E0,-3.535907865E-1,1.571884453E-1,3.969990313E-1
3.645405329E0,-3.285578191E-1,1.438730359E-1,3.697690070E-1
3.665284443E0,-3.056553006E-1,1.380142570E-1,2.968005538E-1
3.685187152E0,-2.379464209E-1,8.255556226E-2,2.179067284E-1
3.705086683E0,-1.505307406E-1,4.740286991E-2,1.390129030E-1
3.724978558E0,-1.132475883E-1,6.284874678E-2,1.080545783E-1
3.744848818E0,-8.814803511E-2,7.776200771E-2,1.139799356E-1
3.764763975E0,-5.619104207E-2,9.906667471E-2,7.343450189E-2
3.784647100E0,-3.115806542E-2,7.935985923E-2,1.910761744E-2
3.804522360E0,2.536586113E-2,-2.563216910E-2,-2.410089783E-2
3.824405902E0,8.987903595E-2,-1.657768935E-1,-8.435314149E-2
3.844282464E0,1.276948154E-1,-2.857487500E-1,-1.514628232E-1
3.864177308E0,1.426080763E-1,-3.539902568E-1,-2.106498331E-1
3.884110068E0,1.489994675E-1,-3.278254569E-1,-2.677063644E-1
3.904005954E0,1.500647068E-1,-2.590513527E-1,-3.502619267E-1
3.923860641E0,1.532603949E-1,-2.574535012E-1,-3.726983964E-1
3.943766371E0,1.874144375E-1,-3.320863843E-1,-3.396095932E-1
3.963653037E0,2.417413145E-1,-4.115128219E-1,-2.996633649E-1
3.983537829E0,2.417413145E-1,-4.429371953E-1,-2.868805826E-1
4.003431787E0,2.023276985E-1,-4.429371953E-1,-3.257615864E-1
4.023331162E0,2.145778835E-1,-4.669715166E-1,-2.932719588E-1
4.043233454E0,2.417413145E-1,-4.637758136E-1,-2.677063644E-1
4.063087516E0,2.374803871E-1,-4.472647011E-1,-2.874131799E-1
4.083055850E0,2.497305721E-1,-4.141759276E-1,-2.964676619E-1
4.102872464E0,2.886781394E-1,-3.102491200E-1,-2.521939278E-1
4.122744808E0,2.977326214E-1,-1.733001024E-1,-1.637129933E-1
4.142637881E0,2.598502934E-1,-5.812177807E-2,-9.500546753E-2
4.162516214E0,2.060560137E-1,3.408745676E-2,-4.913387448E-2
4.182425693E0,1.543256342E-1,1.726343334E-1,-1.291595027E-2
4.202287048E0,7.276873291E-2,3.490635455E-1,4.840152711E-2
4.222194287E0,-3.275591508E-2,5.499930978E-1,1.326215118E-1
4.242080485E0,-2.011958808E-1,7.093786001E-1,1.991985738E-1
4.261964548E0,-4.484631121E-1,7.376073003E-1,2.589181960E-1
4.281897464E0,-7.288191319E-1,7.072481513E-1,3.287575543E-1
4.301749443E0,-1.018762231E0,8.308817744E-1,4.076513648E-1
4.321661110E0,-1.276748300E0,1.089400530E0,4.135101438E-1
4.341552725E0,-1.562963128E0,9.209605455E-1,3.202356696E-1
4.361444808E0,-1.957964897E0,8.628387749E-2,2.067217827E-1
4.381330485E0,-2.303832769E0,-6.950645447E-1,4.094489291E-2
4.401248714E0,-2.503164530E0,-1.264298439E0,-2.223673910E-1
4.421111110E0,-2.504762411E0,-2.006233215E0,-5.608451962E-1
4.441040121E0,-2.332660675E0,-2.992838860E0,-1.057576656E0
4.460911371E0,-2.006965637E0,-4.001814365E0,-1.859763741E0
4.480780693E0,-1.553376079E0,-4.943080902E0,-3.041972637E0
4.500677204E0,-8.647694588E-1,-5.922762394E0,-4.377109051E0
4.520560485E0,-5.832150951E-2,-6.999380112E0,-5.925491810E0
4.540434131E0,3.137111366E-1,-8.099499702E0,-7.612421513E0
4.560329600E0,-5.305526257E-1,-8.925654411E0,-9.200218201E0
4.580211839E0,-2.508557081E0,-8.734312057E0,-1.024381351E1
4.600134496E0,-4.614922523E0,-6.375286579E0,-1.099320507E1
4.620050746E0,-5.028033257E0,-2.837714195E0,-1.101617432E1
4.639904912E0,-2.137589693E0,-9.285503030E-1,-7.467416763E0
4.659794131E0,8.563141823E-1,-2.671071887E-1,-2.479329854E-1
4.679672777E0,1.324284434E0,7.792179585E-1,5.942868233E0
4.699583350E0,9.969915152E-1,3.093503237E0,6.353249550E0
4.719434287E0,7.299509048E-1,5.118910789E0,4.952534676E0
4.739370121E0,4.032572806E-1,5.227098465E0,5.172638416E0
4.759221527E0,1.575213373E-1,4.850804806E0,5.371437550E0
4.779114808E0,-2.862813650E-3,4.630101681E0,5.042080879E0
4.799037881E0,-2.427399755E-1,4.248482227E0,4.864586353E0
4.818931996E0,-5.470637083E-1,4.008671761E0,4.876836300E0
4.838802881E0,-6.179683208E-1,4.234101772E0,4.881629944E0
4.858684183E0,-2.288919389E-1,4.696212769E0,4.537826061E0
4.878574183E0,2.039255500E-1,4.973906040E0,3.895024538E0
4.898440277E0,3.840830922E-1,4.854000568E0,3.245831490E0
4.918359912E0,3.446028829E-1,4.237297058E0,2.861548901E0
4.938246631E0,3.142437339E-1,3.391435623E0,2.564149141E0
4.958141058E0,3.782243133E-1,2.629261494E0,2.120679140E0
4.978056891E0,5.162385702E-1,1.960295081E0,1.629806519E0
4.997932621E0,6.479279995E-1,1.051584721E0,1.218293667E0
5.017817673E0,8.440639973E-1,-7.143718749E-2,1.045659423E0
5.037715121E0,1.047656655E0,-8.075132370E-1,9.465261102E-1
5.057557725E0,1.128148317E0,-9.296155572E-1,8.462610841E-1
5.077491006E0,1.016764879E0,-7.179670334E-1,7.418016195E-1
5.097343610E0,7.790182233E-1,-5.538545847E-1,6.309508085E-1
5.117272725E0,6.233610511E-1,-5.010589957E-1,5.920698047E-1
5.137161735E0,6.238936782E-1,-4.274913371E-1,5.915372372E-1
5.157070173E0,6.404713392E-1,-2.515947223E-1,5.536548495E-1
5.176920902E0,5.754255652E-1,-1.002650559E-1,4.603804052E-1
5.196830225E0,4.506601393E-1,-1.295589656E-1,3.633776009E-1
5.216727100E0,3.584509194E-1,-2.793573737E-1,3.181052208E-1
5.236570329E0,3.366136253E-1,-3.960669637E-1,2.876794934E-1
5.256502933E0,3.264939189E-1,-4.541887343E-1,2.812880874E-1
5.276379391E0,2.966673970E-1,-4.376110435E-1,2.786250114E-1
5.296257100E0,2.555893362E-1,-3.480648994E-1,2.227002829E-1
5.316158975E0,2.028603107E-1,-1.988656968E-1,1.810896099E-1
5.336067256E0,1.601844132E-1,-2.882786840E-2,1.890788674E-1
5.355939287E0,1.149120107E-1,4.101147130E-2,2.392113954E-1
5.375830537E0,8.022536337E-2,1.531272428E-3,2.759619355E-1
5.395737829E0,5.892070010E-2,-6.664364040E-2,2.924730480E-1
5.415587360E0,1.790923066E-2,-3.681711480E-2,2.669074535E-1
5.435498871E0,-1.571218669E-2,6.125089899E-2,2.594508231E-1
5.455396996E0,-1.038602181E-2,1.156443581E-1,2.525267899E-1
5.475285277E0,6.191667169E-3,5.272903293E-2,2.535920441E-1
5.495194235E0,2.163754590E-2,-4.640421271E-2,2.338852286E-1
5.515096996E0,9.919982404E-3,-1.231675670E-1,1.762960702E-1
5.534949548E0,-4.873441160E-2,-1.764957905E-1,1.336867511E-1
5.554850746E0,-1.137802005E-1,-1.343525201E-1,1.177082509E-1
5.574735173E0,-1.585199833E-1,-9.653674439E-3,1.145125479E-1
5.594620068E0,-1.883465201E-1,1.278945357E-1,1.016631797E-1
5.614516371E0,-2.256962508E-1,2.142449915E-1,7.663019747E-2
5.634374756E0,-2.336854935E-1,1.768952608E-1,5.958647281E-2
5.654297516E0,-2.288919389E-1,4.420717061E-2,3.455349803E-2
5.674188298E0,-2.198374718E-1,-8.535179496E-2,1.478010789E-2
5.694059548E0,-2.022611201E-1,-1.125152409E-1,2.017285116E-2
5.713958871E0,-2.027937323E-1,-1.870815456E-2,1.371487509E-2
5.733856579E0,-2.193048447E-1,6.924014539E-2,-6.657706108E-4
5.753728818E0,-1.995980442E-1,4.846810177E-2,-1.611164957E-2
5.773627829E0,-1.665092409E-1,-7.523208112E-2,-4.007939249E-2
5.793522048E0,-1.595852226E-1,-1.844850481E-1,-5.818835273E-2
5.813397985E0,-1.452045739E-1,-1.786262691E-1,-6.191666797E-2
5.833302985E0,-1.143128201E-1,-8.002562821E-2,-5.179695413E-2
5.853209600E0,-9.666989744E-2,2.077204362E-2,-5.126433820E-2
5.873122464E0,-8.122401685E-2,3.728315607E-2,-6.724283099E-2
5.892975798E0,-6.418029219E-2,-3.095833398E-2,-7.689651102E-2
5.912872673E0,-5.139749497E-2,-7.037195563E-2,-6.830807030E-2
5.932756162E0,-2.157096937E-2,-1.018629037E-2,-5.552527308E-2
5.952617673E0,-1.997311920E-4,8.628387749E-2,-6.830807030E-2
5.972531683E0,7.256899960E-3,1.289597750E-1,-1.035273373E-1
5.992426214E0,4.720313847E-2,1.081211492E-1,-1.445388049E-1
6.012319704E0,1.058575287E-1,6.338136643E-2,-1.856168509E-1
6.032186371E0,1.489994675E-1,-5.392742343E-3,-2.047910541E-1
6.052094027E0,1.527277827E-1,-8.002562821E-2,-1.957365721E-1
6.071960537E0,1.260969639E-1,-9.706936032E-2,-2.175738513E-1
6.091852308E0,1.149120107E-1,-1.151783243E-1,-2.191716880E-1
6.111765121E0,9.413997084E-2,-1.993983090E-1,-1.813559234E-1
6.131649235E0,-2.636451647E-2,-3.555881083E-1,-1.338864714E-1
6.151535173E0,-1.553242952E-1,-4.413393438E-1,-6.031882018E-2
6.171405381E0,-2.581858635E-1,-4.061866701E-1,2.529928461E-3
6.191324287E0,-4.447347820E-1,-3.145100474E-1,6.544525176E-2
6.211182725E0,-6.696987152E-1,-1.733001024E-1,1.235670298E-1
6.231082048E0,-8.535845280E-1,-2.776263654E-2,1.091863886E-1
6.250957985E0,-9.958597422E-1,1.038602218E-1,3.561872989E-2
6.270846423E0,-1.105112672E0,2.856155932E-1,-5.925358832E-2
6.290772412E0,-1.160571337E0,5.553193092E-1,-2.682389915E-1
6.310652308E0,-1.148321152E0,6.678345203E-1,-6.711633801E-1
6.330512516E0,-1.142995000E0,1.614493728E-1,-1.036272049E0
6.350403923E0,-1.160571337E0,-1.237135053E0,-1.218559980E0
6.370333558E0,-1.165897489E0,-3.226857185E0,-1.155112028E0
6.390215433E0,-1.226682425E0,-4.897275448E0,-9.999874830E-1
6.410094339E0,-1.323685169E0,-5.556588173E0,-1.050652623E0
6.430011996E0,-1.269291759E0,-5.053399086E0,-1.593255758E0
6.449870902E0,-1.022490501E0,-3.811004400E0,-2.990774870E0
6.469773298E0,-6.862097979E-1,-2.917140722E0,-5.089749813E0
6.489684808E0,-4.772909582E-1,-3.154887438E0,-7.230268955E0
6.509549027E0,-6.691660881E-1,-4.588624477E0,-8.813272476E0
6.529458558E0,-1.705837488E0,-6.300120831E0,-1.012231064E1
6.549345329E0,-3.287775040E0,-7.203571796E0,-1.129866028E1
6.569227412E0,-4.026514053E0,-7.641648769E0,-1.166163826E1
6.589120016E0,-1.990987062E0,-8.072336197E0,-9.002484322E0
6.609010329E0,1.811428785E0,-5.579490662E0,-3.685306787E0
6.628922933E0,3.180186510E0,-1.153980255E0,2.616944551E0
6.648789339E0,1.855702519E0,3.442034245E0,6.489133358E0
6.668683714E0,7.390719652E-1,8.073334694E0,5.822896481E0
6.688557829E0,-1.052583382E-1,1.042703342E1,4.983959198E0
6.708458766E0,-6.814162731E-1,1.011738396E1,5.855985165E0
6.728344964E0,-1.017164350E0,9.102016449E0,6.378815174E0
6.748245850E0,-1.356707454E0,7.917677402E0,6.124623775E0
6.768136214E0,-1.622682810E0,6.394860268E0,5.839407921E0
6.788045016E0,-1.464895129E0,5.043212414E0,5.649130344E0
6.807887725E0,-1.074220896E0,4.182371140E0,5.306991100E0
6.827804652E0,-6.862097979E-1,3.672856808E0,4.788887978E0
6.847705016E0,-4.085168540E-1,3.228321791E0,4.106140614E0
6.867560485E0,-1.436067224E-1,2.718274832E0,3.479317427E0
6.887471423E0,1.098521519E-2,2.177269697E0,3.052358627E0
6.907355537E0,8.655018173E-4,1.587197185E0,2.565746784E0
6.927266996E0,-2.902759984E-2,8.415340781E-1,2.076472044E0
6.947163766E0,1.569887102E-1,3.462007269E-2,1.698047996E0
6.967075902E0,4.784227908E-1,-5.421370268E-1,1.291861296E0
6.986925746E0,7.230269313E-1,-8.698959351E-1,9.294158220E-1
7.006811475E0,8.008555174E-1,-1.097522855E0,6.410705447E-1
7.026701006E0,6.985265613E-1,-1.295256734E0,4.401409626E-1
7.046592673E0,6.084477901E-1,-1.268026710E0,3.324858546E-1
7.066467100E0,6.297524571E-1,-8.906679749E-1,2.791576385E-1
7.086350121E0,6.623086333E-1,-4.035235941E-1,2.898099720E-1
7.106230381E0,6.388735175E-1,-2.083862014E-2,3.282249272E-1
7.126123610E0,5.332822800E-1,1.816888005E-1,3.117138147E-1
7.146041266E0,4.314859509E-1,1.545253694E-1,2.477332503E-1
7.165927412E0,4.123117626E-1,-2.350170352E-2,1.965354979E-1
7.185787881E0,4.368121028E-1,-2.153768092E-1,2.067217827E-1
7.205701371E0,4.421382844E-1,-3.352820873E-1,2.466680259E-1
7.225577829E0,4.011268020E-1,-3.752949238E-1,2.482658774E-1
7.245463141E0,3.169068098E-1,-3.731644452E-1,2.045913190E-1
7.265364131E0,2.294911444E-1,-3.715665936E-1,1.954702586E-1
7.285263350E0,1.692388952E-1,-3.033251166E-1,1.810896099E-1
7.305145954E0,1.149120107E-1,-2.377467006E-1,1.448716968E-1
7.325139027E0,5.146406963E-2,-2.569209039E-1,1.097190008E-1
7.344935329E0,-1.145125460E-2,-2.894770801E-1,5.106460676E-2
7.364830485E0,-4.926702753E-2,-2.937380075E-1,2.443378232E-2
7.384735954E0,-7.430000603E-2,-2.719007432E-1,2.549901605E-2
7.404601839E0,-1.095192730E-1,-2.531925738E-1,5.053199083E-2
7.424494027E0,-1.297587007E-1,-2.836183012E-1,9.473916143E-2
7.444399912E0,-1.441393495E-1,-3.145100474E-1,9.420654923E-2
7.464281579E0,-1.276282370E-1,-2.979989350E-1,7.396712154E-2
7.484176266E0,-1.025952548E-1,-2.814878225E-1,5.426030606E-2
7.504064704E0,-9.720251709E-2,-3.134448230E-1,2.656424791E-2
7.523948402E0,-8.974587917E-2,-3.326190114E-1,-1.078548469E-2
7.543857048E0,-5.299534276E-2,-3.411408663E-1,-3.848154470E-2
7.563733714E0,-3.328853101E-2,-3.726318181E-1,-8.382052183E-2
7.583631162E0,-4.820179567E-2,-4.216325581E-1,-1.498649716E-1
7.603515433E0,-6.684337556E-2,-5.218310356E-1,-1.978670359E-1
7.623389391E0,-3.808208182E-2,-6.017900705E-1,-1.978670359E-1
7.643286787E0,-3.062544949E-2,-5.356790423E-1,-1.631803811E-1
7.663183402E0,-5.086487532E-2,-2.820204496E-1,-1.264298409E-1
7.683073714E0,-7.749570161E-2,9.520520456E-3,-8.701622486E-2
7.702945173E0,-6.790860742E-2,1.507970542E-1,-5.818835273E-2
7.722855954E0,-2.263620123E-2,1.231009886E-1,-6.724283099E-2
7.742763610E0,1.045259926E-2,-5.991935614E-4,-8.541837335E-2
7.762635068E0,2.057231218E-2,-1.237001866E-1,-9.340762347E-2
7.782505798E0,2.003969625E-2,-1.695717871E-1,-1.136470512E-1
7.802414808E0,-2.862813650E-3,-1.396786869E-1,-1.258972287E-1
7.822293714E0,-2.316881903E-2,-7.356765866E-2,-1.365495622E-1
7.842179860E0,-2.742975019E-2,-6.717626005E-2,-1.541258991E-1
7.862054652E0,-3.808208182E-2,-1.178414002E-1,-1.589194536E-1
7.881977308E0,-5.352795869E-2,-1.455374658E-1,-1.679739356E-1
7.901839287E0,-7.057169080E-2,-1.839524209E-1,-1.760297567E-1
7.921766839E0,-7.749570161E-2,-2.478664070E-1,-1.904104054E-1
7.941658350E0,-6.844121963E-2,-2.900096774E-1,-1.850842386E-1
7.961519964E0,-3.488638252E-2,-2.510620952E-1,-1.866820902E-1
7.981426683E0,-2.902759984E-2,-1.402112991E-1,-2.207695395E-1
8.001302568E0,-6.524552405E-2,-2.296908759E-2,-2.714346945E-1
8.021226631E0,-1.100518852E-1,1.378145255E-2,-3.177723289E-1
8.041105121E0,-1.270956099E-1,-1.444722246E-2,-3.551220596E-1
8.061021579E0,-1.281608492E-1,-1.657768898E-2,-4.035901725E-1
8.080872568E0,-1.414762586E-1,4.793548584E-2,-4.387428463E-1
8.100744548E0,-1.675744653E-1,1.033276021E-1,-4.478639066E-1
8.120675068E0,-1.787594110E-1,5.432688445E-2,-4.328840673E-1
8.140552881E0,-1.691723168E-1,-9.653674066E-2,-3.892095089E-1
8.160449912E0,-2.001306564E-1,-2.143115699E-1,-3.177723289E-1
8.180301683E0,-2.539249361E-1,-1.050586104E-1,-1.904104054E-1
8.200199964E0,-2.720338702E-1,2.201037705E-1,-6.724283099E-2
8.220109391E0,-3.024595976E-1,5.622432828E-1,3.402087837E-2
8.240008037E0,-3.424058259E-1,8.308817744E-1,1.134473160E-1
8.259873818E0,-3.653083444E-1,1.089400530E0,1.603175700E-1
8.279782516E0,-4.037233293E-1,1.339929938E0,1.597849578E-1
8.299653037E0,-4.985956252E-1,1.550446630E0,8.834776282E-2
8.319552516E0,-6.238270998E-1,1.643188477E0,-4.220985994E-2
8.339454496E0,-6.712965369E-1,1.611231565E0,-2.532591522E-1
8.359312829E0,-6.665030122E-1,1.592589974E0,-5.896064639E-1
8.379235329E0,-8.279523849E-1,1.418291211E0,-8.545166254E-1
8.399092725E0,-1.251182795E0,6.262238622E-1,-1.014967322E0
8.419023402E0,-1.613095641E0,-9.663661122E-1,-1.272354245E0
8.438917829E0,-1.575745940E0,-2.866542101E0,-1.722215533E0
8.458775954E0,-1.284204960E0,-4.583830833E0,-2.503630400E0
8.478683506E0,-5.886744261E-1,-6.026156425E0,-3.553617477E0
8.498559235E0,3.291569948E-1,-7.278670788E0,-5.057193756E0
8.518447308E0,7.918010354E-1,-8.710344315E0,-7.183332443E0
8.538346996E0,4.587159753E-1,-1.048255825E1,-9.300415993E0
8.558228246E0,-1.131277442E0,-1.183320808E1,-1.062869549E1
8.578136162E0,-3.700286627E0,-1.189179516E1,-1.105878353E1
8.598014131E0,-5.337682724E0,-1.059021378E1,-1.031738091E1
8.617899287E0,-4.527506828E0,-8.128859520E0,-7.776600361E0
8.637803558E0,-3.909405172E-1,-2.611218929E0,-4.415457249E0
8.657690589E0,2.749499559E0,3.416468620E0,3.308880031E-1
8.677585225E0,1.806635261E0,7.262625694E0,5.998793125E0
8.697466996E0,1.655105799E-1,1.065139771E1,7.199643612E0
8.717349652E0,-8.615737557E-1,1.229678345E1,6.001988888E0
8.737239443E0,-1.176017284E0,1.084706783E1,6.634670734E0
8.757166683E0,-1.357772589E0,8.661742210E0,7.795042515E0
8.777059027E0,-1.568289280E0,7.707160473E0,7.475739002E0
8.796928454E0,-1.874810100E0,7.444380760E0,6.321292400E0
8.816816423E0,-2.089055061E0,6.582474232E0,5.441277027E0
8.836715537E0,-2.011759043E0,5.263848782E0,4.903999805E0
8.856597933E0,-1.662096381E0,4.048617840E0,4.285232544E0
8.876491475E0,-1.241595626E0,3.076992273E0,3.527252913E0
8.896372360E0,-9.873378873E-1,2.184193850E0,2.803493500E0
8.916236787E0,-8.551824093E-1,1.153913617E0,2.418611526E0
8.936129704E0,-7.400040627E-1,2.632457018E-1,2.199040413E0
8.956046475E0,-6.787531376E-1,-1.450048387E-1,2.027937412E0
8.975928454E0,-6.915359497E-1,-1.870815456E-2,1.748113990E0
8.995802412E0,-7.624405622E-1,1.310902387E-1,1.421420336E0
9.015695068E0,-7.373409867E-1,-5.386084318E-2,1.259904385E0
9.035595485E0,-6.350120306E-1,-2.979989350E-1,1.128281474E0
9.055491996E0,-4.762257338E-1,-4.840152562E-1,9.875375628E-1
9.075389235E0,-2.715012729E-1,-6.241599917E-1,8.505885601E-1
9.095290433E0,-8.388710022E-2,-6.300853491E-1,7.093120217E-1
9.115195225E0,5.572500080E-2,-5.127765536E-1,5.894067287E-1
9.135080433E0,1.271621883E-1,-2.942706347E-1,4.641087055E-1
9.154943402E0,1.569887102E-1,-4.374112934E-2,3.015941083E-1
9.174830798E0,1.820882708E-1,9.800143540E-2,1.501978636E-1
9.194732881E0,2.193714231E-1,9.054480493E-2,4.627105966E-2
9.214587621E0,2.497305721E-1,-2.350170352E-2,1.464695437E-3
9.234516475E0,2.865476906E-1,-1.087869257E-1,-1.824211515E-2
9.254393610E0,3.014609516E-1,-7.896039635E-2,-4.540555924E-2
9.274269027E0,2.582524419E-1,2.236989327E-2,-6.777545065E-2
9.294161006E0,2.023276985E-1,1.054580659E-1,-5.499265343E-2
9.314068141E0,1.750976741E-1,1.358837932E-1,-3.049229458E-2
9.333995693E0,1.559234858E-1,1.135138944E-1,-1.238333434E-2
9.353855693E0,1.378145218E-1,3.994623944E-2,1.105179265E-2
9.373739704E0,1.191729456E-1,2.596505452E-3,4.660394508E-3
9.393613923E0,1.234338731E-1,2.236989327E-2,-3.155753016E-2
9.413500277E0,1.458037645E-1,-1.391460653E-2,-6.031882018E-2
9.433393193E0,1.734998226E-1,-1.396786869E-1,-8.382052183E-2
9.453282360E0,1.890122890E-1,-3.161078990E-1,-9.926640242E-2
9.473201579E0,1.772947162E-1,-4.664389193E-1,-1.205710620E-1
9.493119079E0,1.553908736E-1,-5.095808506E-1,-1.509302109E-1
9.512979756E0,1.505973190E-1,-4.525908828E-1,-1.989322603E-1
9.532850381E0,1.713693589E-1,-4.322848618E-1,-2.367480397E-1
9.552730902E0,1.868818253E-1,-4.962654412E-1,-2.532591522E-1
9.572612829E0,1.799578071E-1,-5.212984085E-1,-2.629128397E-1
9.592523818E0,1.692388952E-1,-4.451342523E-1,-2.746303976E-1
9.612411162E0,1.788925678E-1,-3.736970723E-1,-3.087178469E-1
9.632313454E0,1.708367467E-1,-3.694361150E-1,-3.412074447E-1
9.652182152E0,1.505973190E-1,-3.987300396E-1,-3.475988507E-1
9.672077568E0,1.292926520E-1,-4.024583399E-1,-3.252289593E-1
9.691996891E0,9.200949967E-2,-3.320863843E-1,-2.815544009E-1
9.711867933E0,5.519238487E-2,-2.212355882E-1,-2.404763550E-1
9.731761110E0,4.986622185E-2,-1.604507267E-1,-2.165086120E-1
9.751625485E0,6.264901906E-2,-1.828871965E-1,-2.154433727E-1
9.771510798E0,5.838808417E-2,-2.393445522E-1,-2.324871123E-1
9.791434496E0,7.256899960E-3,-2.655093372E-1,-2.735651433E-1
9.811307621E0,-6.737598777E-2,-2.217682004E-1,-3.502619267E-1
9.831211579E0,-1.217694506E-1,-1.268958896E-1,-4.195686579E-1
9.851114704E0,-1.499981284E-1,1.644453406E-2,-4.350145459E-1
9.871019600E0,-1.713027805E-1,1.891454458E-1,-4.360797703E-1
9.890880173E0,-2.027937323E-1,2.957353294E-1,-4.201012850E-1
9.910757673E0,-2.395442724E-1,3.234979510E-1,-4.094489515E-1
9.930659183E0,-2.565880120E-1,3.075194657E-1,-3.993292153E-1
9.950565225E0,-2.262288630E-1,2.462019771E-1,-3.652417660E-1
9.970414235E0,-1.888791323E-1,1.358837932E-1,-3.033916950E-1
9.990308141E0,-1.713027805E-1,1.111837011E-2,-2.559222281E-1
1.001020705E1,-1.414762586E-1,-7.842778414E-2,-2.292914093E-1
1.003009710E1,-1.079214215E-1,-7.789516449E-2,-2.181064636E-1
1.005001429E1,-7.483261824E-2,-5.758916214E-2,-1.856168509E-1
1.006987476E1,-4.979964346E-2,-6.983934343E-2,-1.674413085E-1
1.008977528E1,-3.967992961E-2,-7.469946891E-2,-1.866820902E-1
1.010966720E1,-5.525896326E-3,-3.788235039E-2,-1.968017966E-1
1.012955736E1,6.424686313E-2,6.324821152E-3,-1.893451661E-1
1.014942215E1,1.399449855E-1,9.520520456E-3,-1.765623689E-1
1.016932746E1,1.724345982E-1,-2.403431945E-2,-1.754971445E-1
1.018922819E1,2.007298470E-1,-8.908011019E-2,-1.760297567E-1
1.020913236E1,2.721670270E-1,-1.466026902E-1,-1.685065478E-1
1.022902637E1,3.563204408E-1,-1.663095057E-1,-1.083208844E-1
1.024887371E1,4.320185781E-1,-1.855502725E-1,4.254274443E-2
1.026876679E1,5.380758047E-1,-3.011946380E-1,2.743640840E-1
1.028867200E1,6.521888971E-1,-5.122439265E-1,5.568505526E-1
1.030855174E1,6.596455574E-1,-7.089125514E-1,7.940646410E-1
1.032843668E1,6.441996694E-1,-8.272866011E-1,9.763526320E-1
1.034835158E1,6.617760062E-1,-1.004781008E0,1.161836386E0
1.036823934E1,7.235595584E-1,-1.305376530E0,1.273219824E0
1.038814116E1,7.534526587E-1,-1.700844288E0,1.213500142E0
1.040804575E1,6.105782390E-1,-2.151238203E0,1.139999032E0
1.042791637E1,3.137111366E-1,-2.292448044E0,1.056844354E0
1.044781439E1,4.933360592E-2,-1.721616268E0,8.137714267E-1
1.046768799E1,-1.723680198E-1,-5.517241359E-1,4.731631875E-1
1.048759642E1,-3.557212651E-1,5.798861980E-1,9.900009632E-2
1.050747038E1,-5.364114046E-1,6.790194511E-1,-2.553896308E-1
1.052735726E1,-7.256234288E-1,-7.883390188E-1,-8.241574764E-1
1.054724069E1,-8.477257490E-1,-3.432580233E0,-1.921014547E0
1.056716189E1,-9.649679661E-1,-6.509572506E0,-3.052092314E0
1.058707085E1,-1.082742810E0,-9.344090462E0,-4.257736206E0
1.060693298E1,-1.395588398E0,-1.177242279E1,-5.637679100E0
1.062681746E1,-2.205764771E0,-1.353984451E1,-6.563499928E0
1.064670387E1,-3.597424984E0,-1.437611866E1,-6.934467316E0
1.066657986E1,-5.760913372E0,-1.277500629E1,-6.318829060E0
1.068648252E1,-8.294770241E0,-7.436458111E0,-4.562060356E0
1.070636340E1,-9.389562607E0,-7.792845368E-1,-3.482712746E0
1.072624252E1,-7.448375702E0,2.463484526E0,-4.143090725E0
1.074613345E1,-2.341182470E0,2.911747932E0,-3.935769796E0
1.076603674E1,1.938324690E0,2.930922031E0,-2.458025217E-1
1.078593887E1,2.396108627E0,3.147297621E0,3.843360662E0
1.080580851E1,1.884463787E0,3.729380846E0,4.523978233E0
1.082573387E1,1.810363531E0,3.810338497E0,3.624255657E0
1.084559590E1,1.907366276E0,2.608422756E0,3.747423172E0
1.086547798E1,1.950042248E0,1.801508784E0,4.173250198E0
1.088536116E1,1.716556430E0,2.400569201E0,4.270252705E0
1.090527762E1,1.131876707E0,3.778914213E0,4.618317604E0
1.092513981E1,3.979310989E-1,5.409919262E0,5.145474911E0
1.094507168E1,-1.739658713E-1,7.172014236E0,5.100668430E0
1.096493606E1,-5.220307708E-1,8.428789139E0,4.335831165E0
1.098484054E1,-7.421345115E-1,8.418669701E0,3.893426657E0
1.100469767E1,-8.919329047E-1,7.473674774E0,3.939831018E0
1.102462502E1,-1.172288895E0,6.255780697E0,3.831110477E0
1.104449851E1,-1.373751163E0,4.863055229E0,3.505948305E0
1.106436663E1,-1.152049541E0,3.520928144E0,3.244766474E0
1.108428835E1,-6.787531376E-1,2.763547421E0,2.850896358E0
1.110416455E1,-2.987312973E-1,2.316881895E0,2.156963825E0
1.112410179E1,-1.702375561E-1,1.531805038E0,1.554108381E0
1.114395986E1,-6.737598777E-2,4.306204617E-1,1.403777361E0
1.116382283E1,2.822867632E-1,-3.907407820E-1,1.475747228E0
1.118373002E1,6.889394522E-1,-6.071162224E-1,1.339330792E0
1.120361929E1,8.973256946E-1,-4.328174889E-1,1.053648591E0
1.122351403E1,8.520532846E-1,-2.505294979E-1,7.956624627E-1
1.124338184E1,7.380067706E-1,-1.311568171E-1,5.504591465E-1
1.126329361E1,7.603766322E-1,-1.055912226E-1,3.868793249E-1
1.128318981E1,8.653686643E-1,-1.279611140E-1,2.487984896E-1
1.130308502E1,9.010539651E-1,-1.306242049E-1,7.343450189E-2
1.132296564E1,8.168339729E-1,-9.174319357E-2,-6.298190355E-2
1.134285851E1,6.963961124E-1,-2.669740282E-2,-1.354843229E-1
1.136272710E1,6.329481602E-1,5.792204756E-3,-1.429409534E-1
1.138263205E1,5.919366479E-1,-3.794892691E-3,-8.382052183E-2
1.140251637E1,5.071840882E-1,-4.533898085E-2,-5.552527308E-2
1.142239424E1,4.016594291E-1,-8.535179496E-2,-3.262276202E-2
1.144230434E1,3.190372884E-1,-8.002562821E-2,-6.524552125E-3
1.146217788E1,2.987978756E-1,-9.493889660E-2,6.597787142E-2
1.148209231E1,2.726996541E-1,-1.151783243E-1,1.533935517E-1
1.150199512E1,1.847513467E-1,-7.037195563E-2,1.491326243E-1
1.152184970E1,9.413997084E-2,-1.018629037E-2,1.187734827E-1
1.154173392E1,7.916013151E-2,-1.817553863E-2,1.145125479E-1
1.156165658E1,1.330209672E-1,-1.375482082E-1,7.982590050E-2
1.158151762E1,2.049907744E-1,-4.077845216E-1,2.656424791E-2
1.160140127E1,2.316216081E-1,-7.627733946E-1,2.123808302E-2
1.162131720E1,2.167083472E-1,-9.908664227E-1,1.105179265E-2
1.164121262E1,1.916753650E-1,-9.546484947E-1,-1.664426550E-2
1.166112767E1,2.065886259E-1,-7.190322876E-1,1.478010789E-2
1.168102148E1,2.273606807E-1,-4.301544130E-1,2.922733128E-2
1.170085168E1,2.071212530E-1,-2.398771644E-1,-1.331541280E-4
1.172073564E1,1.628475040E-1,-1.519288570E-1,5.725627299E-3
1.174065845E1,1.047922969E-1,-9.600412846E-2,-1.611164957E-2
1.176053007E1,4.933360592E-2,-1.018629074E-1,-7.629731297E-2
1.178044575E1,1.844184659E-2,-1.850176603E-1,-1.109839678E-1
1.180033314E1,3.708342463E-2,-2.676397860E-1,-1.189732105E-1
1.182021674E1,7.862751186E-2,-2.596505582E-1,-1.269624680E-1
1.184009132E1,9.467258304E-2,-2.089854032E-1,-1.551911384E-1
1.186008377E1,1.079879999E-1,-2.020613849E-1,-1.861494780E-1
1.187986351E1,1.191729456E-1,-2.601831555E-1,-2.303566486E-1
1.189977330E1,1.111836955E-1,-3.278254569E-1,-2.516613007E-1
1.191967715E1,9.041165560E-2,-3.182383776E-1,-2.415415943E-1
1.193955345E1,7.649704814E-2,-2.276269794E-1,-2.181064636E-1
1.195943621E1,7.489919662E-2,-1.226349548E-1,-1.994648874E-1
1.197934049E1,7.063826174E-2,-3.362141550E-2,-1.834863871E-1
1.199922757E1,7.543181628E-2,3.195698932E-2,-1.946713328E-1
1.201911845E1,9.360735118E-2,1.864157803E-2,-2.255630940E-1
1.203900845E1,1.351514459E-1,-6.451317668E-2,-2.468677461E-1
1.205888246E1,1.543256342E-1,-1.247654185E-1,-2.746303976E-1
1.207879595E1,1.489994675E-1,-1.135804728E-1,-2.815544009E-1
1.209866991E1,1.671084315E-1,-4.746944830E-2,-2.762282491E-1
1.211856496E1,1.729672104E-1,1.431406848E-2,-2.954024374E-1
1.213846335E1,1.596518010E-1,1.484668534E-2,-3.081852198E-1
1.215834663E1,1.394123733E-1,2.556559257E-2,-3.113809228E-1
1.217824700E1,9.999874979E-2,9.853405505E-2,-2.996633649E-1
1.219810689E1,5.306192115E-2,2.099840641E-1,-2.730325460E-1
1.221804132E1,-4.460663069E-3,3.075194657E-1,-2.207695395E-1
1.223791856E1,-8.015878499E-2,4.284899831E-1,-1.525280476E-1
1.225777611E1,-1.819551140E-1,5.947995186E-1,-9.074454010E-2
1.227770575E1,-3.211011887E-1,7.920007706E-1,-3.262276202E-2
1.229757236E1,-4.489957094E-1,1.011571884E0,2.070546709E-2
1.231747616E1,-5.438680649E-1,1.199186087E0,1.080545783E-1
1.233735793E1,-6.131747365E-1,1.318092704E0,2.242981344E-1
1.235724038E1,-7.416019440E-1,1.402778745E0,3.015941083E-1
1.237715272E1,-9.596418142E-1,1.431074023E0,3.218335211E-1
1.239707924E1,-1.197321892E0,1.355908513E0,2.099174857E-1
1.241690288E1,-1.359370470E0,1.037204027E0,-2.676397935E-2
1.243681377E1,-1.411100864E0,2.185059190E-1,-4.601140916E-1
1.245672054E1,-1.387066603E0,-1.476479530E0,-1.112502694E0
1.247662095E1,-1.520886421E0,-3.854678869E0,-1.738726616E0
1.249644502E1,-1.709033251E0,-6.090137005E0,-2.307494402E0
1.251633819E1,-1.449449301E0,-7.588387012E0,-2.817541361E0
1.253626304E1,-8.055824637E-1,-8.234916687E0,-3.517399549E0
1.255614267E1,-3.877448142E-1,-8.380388260E0,-4.930897236E0
1.257603226E1,-3.909405172E-1,-8.718865395E0,-6.892323971E0
1.259591371E1,-1.057709813E0,-9.478909492E0,-8.293038368E0
1.261580387E1,-2.817141771E0,-9.900542259E0,-8.748759270E0
1.263570298E1,-4.990683079E0,-8.984308243E0,-8.597961426E0
1.265558236E1,-6.131348133E0,-6.159909725E0,-8.431652069E0
1.267548382E1,-4.133636951E0,-2.886248827E0,-7.525538445E0
1.269538543E1,6.105116755E-2,2.616478503E-1,-3.908606291E0
1.271526163E1,1.491126537E0,4.269254208E0,1.084540367E0
1.273518095E1,7.702966034E-2,7.071815968E0,4.889619350E0
1.275505470E1,-6.147726178E-1,8.535446167E0,5.432754993E0
1.277491486E1,-2.571206093E-1,7.721541405E0,4.974904537E0
1.279482564E1,4.234966934E-1,4.507000923E0,5.060722351E0
1.281474866E1,1.023156285E0,1.684799194E0,4.605535030E0
1.283462033E1,1.276282310E0,9.742887616E-1,4.020322800E0
1.285449705E1,1.081744194E0,2.031199694E0,4.215926170E0
1.287437345E1,5.093145370E-1,3.864199400E0,4.644482613E0
1.289429398E1,-1.558569074E-1,5.502660751E0,4.564523697E0
1.291414991E1,-4.879432917E-1,6.503114223E0,4.115194798E0
1.293411549E1,-3.056553006E-1,6.950778484E0,3.634441853E0
1.295396523E1,1.524614729E-2,6.830873489E0,3.271996498E0
1.297384028E1,1.426080763E-1,6.150788784E0,2.942573071E0
1.299374845E1,5.679023638E-2,5.000004292E0,2.461287498E0
1.301363496E1,3.228987753E-2,3.453285694E0,1.987991095E0
1.303351814E1,2.934716940E-1,1.746050119E0,1.718820095E0
1.305341455E1,6.212306023E-1,2.483324558E-1,1.515227437E0
1.307327314E1,8.568468094E-1,-7.216953635E-1,1.268426180E0
1.309321898E1,8.802819252E-1,-1.247254729E0,9.880701900E-1
1.311308981E1,7.800834775E-1,-1.446053863E0,7.647707462E-1
1.313296632E1,7.529200315E-1,-1.380542040E0,7.109099030E-1
1.315284345E1,8.280855417E-1,-1.187601686E0,7.924668193E-1
1.317274809E1,8.770862222E-1,-8.688306808E-1,7.380733490E-1
1.319264648E1,8.072469234E-1,-5.671700239E-1,5.408720970E-1
1.321251215E1,6.473953724E-1,-4.504604042E-1,3.596493006E-1
1.323240330E1,5.039883852E-1,-4.850804806E-1,2.125805616E-1
1.325231085E1,4.442687333E-1,-6.156381369E-1,1.363498271E-1
1.327217319E1,4.651073813E-1,-7.238923907E-1,1.021957919E-1
1.329206799E1,4.928034246E-1,-6.977276206E-1,3.987966105E-2
1.331199439E1,4.757596850E-1,-5.650395155E-1,-7.057168987E-3
1.333187866E1,4.277576506E-1,-4.147085249E-1,1.644453406E-2
1.335175715E1,3.851483166E-1,-2.958684862E-1,4.680367559E-2
1.337162132E1,3.110480309E-1,-2.526599467E-1,7.503235340E-2
1.339155189E1,2.023276985E-1,-1.951373816E-1,5.905385688E-2
1.341143658E1,7.330134511E-2,-8.375394344E-2,5.106460676E-2
1.343132262E1,-4.820179567E-2,2.609820850E-2,1.118494645E-1
1.345124064E1,-1.638461500E-1,1.049254537E-1,1.507304758E-1
1.347109861E1,-2.395442724E-1,1.188400611E-1,1.379476786E-1
1.349102700E1,-2.907420397E-1,1.075885370E-1,8.248898387E-2
1.351085642E1,-3.690366745E-1,1.001319066E-1,2.017285116E-2
1.353077621E1,-4.170387387E-1,6.870753318E-2,-7.057168987E-3
1.355064799E1,-4.154408872E-1,3.515268862E-2,-4.753602296E-2
1.357055684E1,-4.047885537E-1,1.750976779E-2,-1.029947177E-1
1.359044465E1,-4.090494812E-1,-6.657706399E-5,-1.269624680E-1
1.361031976E1,-4.117125571E-1,-3.794892691E-3,-1.232341453E-1
1.363021970E1,-3.946688473E-1,1.697715186E-2,-1.242993772E-1
1.365010590E1,-3.621126413E-1,2.396774292E-2,-1.493323594E-1
1.367002913E1,-3.312208951E-1,-1.817553863E-2,-1.679739356E-1
1.368989335E1,-3.365470469E-1,-8.215609938E-2,-1.514628232E-1
1.370977429E1,-3.525255620E-1,-8.268871158E-2,-1.125818118E-1
1.372968585E1,-3.184380829E-1,-5.439346284E-2,-4.966649041E-2
1.374955746E1,-2.587184608E-1,-6.930672377E-2,-4.394086078E-3
1.376942470E1,-2.342181057E-1,-1.263632625E-1,-7.043853402E-2
1.378933663E1,-2.171743810E-1,-2.089854032E-1,-1.626477689E-1
1.380921403E1,-1.980001926E-1,-2.542577982E-1,-2.095845938E-1
1.382911335E1,-1.920748353E-1,-2.212355882E-1,-2.495308369E-1
1.384900293E1,-1.755637228E-1,-1.823545843E-1,-2.879458070E-1
1.386890877E1,-1.398784071E-1,-1.844850481E-1,-3.028590679E-1
1.388876710E1,-1.121823564E-1,-1.876807362E-1,-3.444031477E-1
1.390871601E1,-1.063235700E-1,-1.599181145E-1,-3.844159544E-1
1.392856715E1,-1.185737476E-1,-9.706936032E-2,-3.956009150E-1
1.394847127E1,-1.414762586E-1,-2.030600421E-2,-4.073184729E-1
1.396832470E1,-1.595852226E-1,-1.178414002E-2,-3.945356905E-1
1.398825252E1,-1.750310957E-1,-7.416684926E-2,-3.828181326E-1
1.400812049E1,-2.161091566E-1,-1.412765235E-1,-4.051880240E-1
1.402804304E1,-2.629793882E-1,-1.962026060E-1,-3.881442845E-1
1.404790049E1,-3.003291488E-1,-2.436054796E-1,-3.609808385E-1
1.406778616E1,-3.195033371E-1,-2.713681161E-1,-3.374791443E-1
1.408770773E1,-3.083183765E-1,-2.265617549E-1,-3.151092529E-1
1.410757132E1,-2.746969759E-1,-1.258306503E-1,-3.172397017E-1
1.412745267E1,-2.613815665E-1,-4.959991202E-2,-3.076526225E-1
1.414735762E1,-2.730991244E-1,8.987903595E-3,-2.820870280E-1
1.416724460E1,-2.880789638E-1,1.220357567E-1,-2.474003732E-1
1.418716127E1,-2.784252763E-1,2.632457018E-1,-1.723014414E-1
1.420707444E1,-2.981986701E-1,4.093157947E-1,-1.013968661E-1
1.422691043E1,-3.386775255E-1,5.398734212E-1,1.997311832E-3
1.424684158E1,-3.898752928E-1,7.136395574E-1,1.762960702E-1
1.426672398E1,-4.617785215E-1,8.911340237E-1,4.422714412E-1
1.428658778E1,-5.326830745E-1,9.577776194E-1,7.684990764E-1
1.430647340E1,-5.635748506E-1,9.076451063E-1,1.041398406E0
1.432638069E1,-5.465311408E-1,7.951964736E-1,1.170890808E0
1.434625048E1,-4.836823642E-1,5.900059342E-1,1.113834262E0
1.436612840E1,-4.154408872E-1,2.051905096E-1,7.605097890E-1
1.438605304E1,-4.916716218E-1,-6.311505437E-1,3.149095178E-1
1.440593788E1,-7.053840160E-1,-2.096312046E0,-7.955959439E-2
1.442581392E1,-1.051318407E0,-3.773121834E0,-3.657743931E-1
1.444571845E1,-1.356174827E0,-4.741618633E0,-7.841446400E-1
1.446559981E1,-1.267161250E0,-4.592352867E0,-1.655638456E0
1.448548835E1,-7.959953547E-1,-3.242303133E0,-2.867673874E0
1.450538298E1,-4.868780673E-1,-9.711596370E-1,-4.343021393E0
1.452526106E1,2.711018026E-1,-7.665017247E-1,-6.899248123E0
1.454516226E1,6.366764903E-1,-2.719406843E0,-8.943829536E0
1.456507559E1,4.495949149E-1,-5.357256413E0,-1.059667206E1
1.458491606E1,-8.274197578E-1,-7.429534435E0,-1.164512730E1
1.460484648E1,-1.912093282E0,-8.259417534E0,-1.180284882E1
1.462472465E1,-1.277813554E0,-8.578122139E0,-1.016764927E1
1.464458048E1,1.707502007E0,-7.173146248E0,-5.525164127E0
1.466449033E1,3.401888132E0,-4.544417381E0,1.134672880E0
1.468439523E1,2.780990601E0,-1.118827581E0,6.429480076E0
1.470425642E1,1.884463787E0,3.777848959E0,6.277018547E0
1.472414632E1,1.022091031E0,7.107501030E0,4.292689323E0
1.474408174E1,3.280917704E-1,6.787199020E0,4.313461304E0
1.476395319E1,3.030588031E-1,4.993612766E0,4.687624454E0
1.478382694E1,7.097114921E-1,3.280584812E0,4.454138756E0
1.480373679E1,1.000719905E0,1.868085861E0,4.507999420E0
1.482360798E1,1.110571980E0,1.630405664E0,4.519184589E0
1.484349351E1,1.169692397E0,2.747568846E0,3.992559910E0
1.486339371E1,1.096124768E0,4.154675007E0,3.246364117E0
1.488330288E1,9.495886564E-1,4.891283512E0,2.601964712E0
1.490318741E1,8.445966244E-1,5.116780281E0,2.184659719E0
1.492309809E1,7.960619330E-1,5.398201466E0,2.050839901E0
1.494298476E1,6.457974911E-1,5.775027752E0,2.011426210E0
1.496286507E1,4.587159753E-1,5.802191257E0,1.875009894E0
1.498275970E1,4.101812840E-1,5.179096222E0,1.744385600E0
1.500263278E1,6.105782390E-1,4.215992451E0,1.755570650E0
1.502252236E1,9.826108813E-1,3.365869999E0,1.724146247E0
1.504240132E1,1.319490790E0,2.710285664E0,1.664959192E0
1.506230648E1,1.322686553E0,1.972611785E0,1.623947740E0
1.508219023E1,9.826108813E-1,1.068095803E0,1.557836771E0
1.510208632E1,6.137739420E-1,2.547238469E-1,1.470953703E0
1.512200106E1,4.597811997E-1,-1.903438270E-1,1.335069895E0
1.514187319E1,5.173037648E-1,-3.278254569E-1,1.167695165E0
1.516177127E1,5.764908195E-1,-3.368799388E-1,9.949942231E-1
1.518163517E1,5.268908739E-1,-3.566533327E-1,8.334782720E-1
1.520153460E1,4.266923964E-1,-4.221651554E-1,6.651048660E-1
1.522144661E1,4.075182080E-1,-4.994611442E-1,4.934692085E-1
1.524132697E1,4.218988419E-1,-5.730288029E-1,3.463338912E-1
1.526120916E1,4.112465382E-1,-5.922029614E-1,2.131131887E-1
1.528111442E1,3.760938346E-1,-5.133091807E-1,1.053914949E-1
1.530100921E1,3.446028829E-1,-4.045888186E-1,4.733629152E-2
1.532088828E1,3.195699155E-1,-3.411408663E-1,1.750976779E-2
1.534075760E1,2.828193605E-1,-2.857487500E-1,-5.991935730E-3
1.536066520E1,2.246975899E-1,-1.898112148E-1,-1.664426550E-2
1.538054104E1,1.388797611E-1,-8.322133124E-2,-1.451379992E-2
1.540043192E1,3.175725788E-2,-5.392742343E-3,-2.796236658E-3
1.542032562E1,-5.352795869E-2,4.101147130E-2,2.922733128E-2
1.544020791E1,-1.036604866E-1,5.326165259E-2,5.745600536E-2
1.546009479E1,-1.452045739E-1,-1.231675688E-2,5.905385688E-2
1.548002713E1,-1.808898896E-1,-1.407439113E-1,7.236927003E-2
1.549989796E1,-2.363485843E-1,-2.558556497E-1,8.621729910E-2
1.551979171E1,-2.971334457E-1,-2.916075289E-1,8.248898387E-2
1.553967192E1,-3.120467067E-1,-2.238986641E-1,9.314130992E-2
1.555956526E1,-3.195033371E-1,-1.194392517E-1,1.005979404E-1
1.557944067E1,-3.392101526E-1,-1.029281393E-1,8.461944759E-2
1.559931067E1,-3.290904164E-1,-1.993983090E-1,5.212984234E-2
1.561923640E1,-2.891441882E-1,-3.246297538E-1,2.017285116E-2
1.563909729E1,-2.496639937E-1,-3.950017095E-1,-1.344856713E-2
1.565898333E1,-2.427399755E-1,-3.864798546E-1,-4.540555924E-2
1.567887885E1,-2.454030514E-1,-2.900096774E-1,-5.179695413E-2
1.569876052E1,-2.400768995E-1,-1.657768935E-1,-5.073172227E-2
1.571866749E1,-2.395442724E-1,-1.657768935E-1,-8.754883707E-2
1.573856447E1,-2.454030514E-1,-3.065207899E-1,-1.567889899E-1
1.575843437E1,-2.485987544E-1,-5.021241903E-1,-1.983996481E-1
1.577831895E1,-2.422073632E-1,-6.700315475E-1,-1.562563628E-1
1.579822656E1,-2.203700840E-1,-7.270880938E-1,-7.203638554E-2
1.581811770E1,-1.969349533E-1,-6.257578135E-1,-5.019910634E-2
1.583800312E1,-1.771615744E-1,-4.845478833E-1,-7.256899774E-2
1.585789276E1,-1.345522404E-1,-4.253608584E-1,-6.937330216E-2
1.587777567E1,-8.708280325E-2,-4.163063765E-1,-5.925358832E-2
1.589769640E1,-9.880036116E-2,-3.459344208E-1,-1.728340536E-1
1.591755947E1,-1.260303855E-1,-2.958684862E-1,-2.938045859E-1
1.593746432E1,-1.308239251E-1,-2.985315621E-1,-3.561872840E-1
1.595734666E1,-1.361500919E-1,-2.836183012E-1,-4.505269825E-1
1.597725421E1,-1.478676647E-1,-3.049229383E-1,-5.336151719E-1
1.599716687E1,-1.606504619E-1,-3.603816330E-1,-5.635082722E-1
1.601705395E1,-1.734332591E-1,-3.774253726E-1,-5.784215331E-1
1.603690317E1,-1.505307406E-1,-3.657078147E-1,-5.832150578E-1
1.605680572E1,-1.153780520E-1,-3.507279754E-1,-5.794867873E-1
1.607672583E1,-1.025952548E-1,-3.209014535E-1,-5.677692294E-1
1.609657135E1,-1.169759035E-1,-2.276269794E-1,-5.672366023E-1
1.611649265E1,-1.265629977E-1,-1.034607589E-1,-5.464645624E-1
1.613638505E1,-1.249651462E-1,-4.374112934E-2,-5.245606899E-1
1.615627723E1,-1.297587007E-1,-6.185009331E-2,-5.234954357E-1
1.617616229E1,-1.164432839E-1,-9.493889660E-2,-5.362782478E-1
1.619606046E1,-8.441971987E-2,-9.227581322E-2,-5.341477990E-1
1.621593343E1,-4.553871229E-2,-1.029281393E-1,-4.846144617E-1
1.623580411E1,1.311568171E-2,-1.988656968E-1,-3.945356905E-1
1.625573650E1,1.010639817E-1,-4.338827133E-1,-2.922067344E-1
1.627561494E1,2.481327206E-1,-6.998580694E-1,-1.605173051E-1
1.629546921E1,3.681045771E-1,-7.803497910E-1,8.388710208E-3
1.631536546E1,3.611805737E-1,-5.495936871E-1,2.487984896E-1
1.633528265E1,2.246975899E-1,-8.961272985E-2,5.275566578E-1
1.635516916E1,-4.460663069E-3,4.593817294E-1,7.850101590E-1
1.637510281E1,-2.603163123E-1,1.076617718E0,1.004581332E0
1.639495244E1,-5.236285925E-1,1.862227082E0,1.025885940E0
1.641484078E1,-8.621063828E-1,2.491713285E0,9.176982641E-1
1.643470791E1,-1.365229249E0,2.308892488E0,7.386059761E-1
1.645461124E1,-1.906767130E0,9.188300371E-1,3.484643400E-1
1.647449999E1,-2.255897284E0,-1.431140542E0,5.958647281E-2
1.649440328E1,-2.294778347E0,-3.554615974E0,-4.318188429E-1
1.651427937E1,-1.630139470E0,-4.728302956E0,-1.790989637E0
1.653419005E1,-4.436695576E-1,-5.674363136E0,-3.933106661E0
1.655407859E1,5.082492828E-1,-7.263224602E0,-6.268696785E0
1.657395661E1,3.595161438E-1,-9.357938766E0,-8.568601608E0
1.659385109E1,-1.039600849E0,-1.128101730E1,-9.833965302E0
1.661371739E1,-2.988245010E0,-1.208100700E1,-9.599946976E0
1.663360489E1,-4.450743198E0,-1.000553417E1,-8.514274597E0
1.665351427E1,-4.896343708E0,-4.896742821E0,-7.717946053E0
1.667340109E1,-2.890709639E0,2.818872929E-1,-5.965437889E0
1.669329390E1,-1.910095960E-1,3.994224310E0,-2.066552162E0
1.671321661E1,3.211677670E-1,5.694536209E0,2.966008186E0
1.673311874E1,1.378145218E-1,6.091069221E0,5.380492210E0
1.675298374E1,6.095130444E-1,5.291544914E0,4.743615627E0
1.677283296E1,1.285336852E0,2.466147661E0,4.482433796E0
1.679273656E1,1.794385076E0,-5.127765536E-1,4.357135773E0
1.681263010E1,1.970281601E0,-1.891654134E0,3.567798376E0
1.683251390E1,1.907898903E0,-1.793586135E0,3.122198105E0
1.685241276E1,1.707502007E0,-5.021241903E-1,3.032119274E0
1.687231463E1,1.336534500E0,1.401180863E0,3.059282780E0
1.689219072E1,8.019207120E-1,3.201158285E0,3.021466970E0
1.691207541E1,2.001972347E-1,4.679169178E0,2.853559494E0
1.693199411E1,-2.976660430E-1,6.064970970E0,2.635053635E0
1.695188927E1,-5.252264738E-1,7.488055706E0,2.480994225E0
1.697174645E1,-4.404738545E-1,8.659611702E0,2.383458853E0
1.699165671E1,-4.159734845E-1,9.148354530E0,2.213953733E0
1.701153322E1,-4.383433759E-1,8.487976074E0,1.997578263E0
1.703142786E1,-3.200359344E-1,6.860699654E0,1.905901551E0
1.705132104E1,3.868127242E-2,4.804400444E0,1.768353343E0
1.707123760E1,4.288228750E-1,2.733720779E0,1.440061927E0
1.709112182E1,6.905373335E-1,7.653699517E-1,1.008842230E0
1.711100734E1,7.827465534E-1,-1.029814005E0,6.752246022E-1
1.713085953E1,8.403357267E-1,-2.426800489E0,5.504591465E-1
1.715076890E1,9.063801765E-1,-3.178855181E0,4.881430268E-1
1.717069062E1,9.015865922E-1,-3.257216215E0,4.108470678E-1
1.719056218E1,7.933988571E-1,-2.719939470E0,3.484643400E-1
1.721044354E1,6.329481602E-1,-1.838392496E0,2.914078236E-1
1.723032244E1,4.677704573E-1,-1.049520850E0,2.434723228E-1
1.725022276E1,3.584509194E-1,-6.044531465E-1,2.754293084E-1
1.727009927E1,3.563204408E-1,-4.504604042E-1,3.079854846E-1
1.729002161E1,4.864120185E-1,-4.179042280E-1,2.077870220E-1
1.730987958E1,5.866104960E-1,-4.861457348E-1,7.822804898E-2
1.732976098E1,5.887410045E-1,-6.065836549E-1,-3.475322574E-2
1.734966947E1,5.711646080E-1,-6.113771796E-1,-1.290929317E-1
1.736956911E1,5.300865769E-1,-4.818847775E-1,-1.525280476E-1
1.738946171E1,4.469318390E-1,-2.553230524E-1,-1.173753664E-1
1.740933427E1,3.158415854E-1,4.953333735E-2,-6.138405204E-2
1.742920999E1,1.543256342E-1,3.075194657E-1,1.804238372E-2
1.744912260E1,-1.304910425E-2,4.077179432E-1,9.420654923E-2
1.746904999E1,-1.185737476E-1,3.495961726E-1,1.635132730E-1
1.748894817E1,-1.611830741E-1,2.312887162E-1,2.211024314E-1
1.750879994E1,-1.851508170E-1,1.507970542E-1,2.333526164E-1
1.752869119E1,-2.187722325E-1,9.587097168E-2,2.328199893E-1
1.754857604E1,-2.491313666E-1,8.987903595E-3,2.381461561E-1
1.756845942E1,-2.635120153E-1,-4.427374899E-2,2.344178408E-1
1.758836130E1,-2.810883522E-1,1.644453406E-2,2.306895256E-1
1.760825223E1,-3.232316375E-1,1.603841484E-1,2.163088769E-1
1.762811041E1,-3.743628263E-1,2.659088075E-1,1.917419434E-1
1.764804578E1,-3.962666988E-1,2.963345051E-1,1.603175700E-1
1.766790802E1,-3.967992961E-1,3.059216142E-1,1.278279573E-1
1.768781640E1,-3.957340717E-1,3.522592485E-1,1.363498271E-1
1.770769182E1,-4.138430357E-1,4.583165050E-1,1.826874614E-1
1.772759072E1,-4.420717061E-1,5.862776041E-1,2.200371921E-1
1.774748223E1,-4.399412274E-1,6.374087930E-1,2.056565434E-1
1.776734140E1,-3.824186623E-1,5.622432828E-1,1.773612946E-1
1.778726286E1,-3.152424097E-1,4.487294257E-1,1.491326243E-1
1.780716484E1,-2.715012729E-1,4.109136462E-1,1.000653282E-1
1.782706359E1,-2.384790480E-1,4.082505703E-1,6.331478804E-2
1.784690083E1,-2.166417688E-1,3.490635455E-1,1.318225823E-2
1.786680104E1,-2.086525112E-1,2.584521770E-1,-4.114462435E-2
1.788671255E1,-2.059894353E-1,1.960694492E-1,-8.808145672E-2
1.790660557E1,-2.390116602E-1,1.449382752E-1,-1.450714171E-1
1.792651255E1,-2.619141638E-1,7.669677585E-2,-2.021279633E-1
1.794636854E1,-2.272941023E-1,1.917419396E-2,-2.474003732E-1
1.796626755E1,-1.744984835E-1,-1.444722246E-2,-2.772934735E-1
1.798614421E1,-1.318891644E-1,-1.231675688E-2,-2.553896308E-1
1.800603812E1,-1.169759035E-1,3.035914153E-2,-1.744319052E-1
1.802594895E1,-1.063235700E-1,1.129812747E-1,-1.141796634E-1
1.804583083E1,-7.163692266E-2,2.227668613E-1,-8.435314149E-2
1.806573369E1,-3.328853101E-2,3.772922158E-1,-6.777545065E-2
1.808560828E1,-3.541899845E-2,5.937342644E-1,-8.488575369E-2
1.810550229E1,-8.175663650E-2,8.106423020E-1,-1.072556525E-1
1.812537078E1,-1.089866534E-1,9.892020226E-1,-1.285603046E-1
1.814529046E1,-8.069140464E-2,1.198653460E0,-1.696383655E-1
1.816518296E1,-1.837527007E-2,1.375082731E0,-2.458025217E-1
1.818509213E1,2.057231218E-2,1.388398051E0,-3.161744773E-1
1.820493786E1,3.528584493E-3,1.258905649E0,-3.145766258E-1
1.822482223E1,-5.619104207E-2,1.123487949E0,-2.479329854E-1
1.824474578E1,-1.121823564E-1,9.796149135E-1,-1.829537749E-1
1.826463463E1,-1.318891644E-1,7.818810344E-1,-8.967930824E-2
1.828448578E1,-1.590526104E-1,6.097127795E-1,2.336854860E-2
1.830438171E1,-2.406095117E-1,5.377429724E-1,1.283605844E-1
1.832428296E1,-3.797555864E-1,5.574497581E-1,2.200371921E-1
1.834417833E1,-5.966636539E-1,6.597787142E-1,2.328199893E-1
1.836409307E1,-8.764870763E-1,8.271534443E-1,1.085871905E-1
1.838394838E1,-1.032144189E0,9.556471705E-1,-2.639780641E-1
1.840383598E1,-9.052483439E-1,7.941312194E-1,-8.976585269E-1
1.842372531E1,-6.185009480E-1,1.848845035E-1,-1.747315049E0
1.844363015E1,-6.862097979E-1,-1.097522855E0,-2.641644716E0
1.846350874E1,-1.139266729E0,-3.385643482E0,-3.154421329E0
1.848341145E1,-1.354044318E0,-6.143398762E0,-3.122930288E0
1.850328687E1,-1.155245185E0,-8.057422638E0,-3.064875126E0
1.852322083E1,-5.609117746E-1,-8.722594261E0,-3.358546495E0
1.854313598E1,6.850779802E-2,-8.640504837E0,-3.764666557E0
1.856297416E1,5.722298622E-1,-8.167740822E0,-4.241225243E0
1.858288192E1,6.521888971E-1,-7.809556007E0,-5.597133636E0
1.860275302E1,9.254211932E-2,-7.958289146E0,-7.522342682E0
1.862265276E1,-1.152582169E0,-7.605431080E0,-9.133041382E0
1.864254005E1,-2.495175123E0,-5.376430988E0,-9.921380997E0
1.866243015E1,-2.674267530E0,-1.807434082E0,-9.436899185E0
1.868232067E1,-6.963295341E-1,1.476346374E0,-5.704256058E0
1.870220932E1,2.844172120E-1,3.315737486E0,1.921880126E0
1.872206765E1,-4.943346977E-1,4.274580479E0,7.448575497E0
1.874198307E1,-5.428028107E-1,5.558585644E0,6.853709221E0
1.876188640E1,3.328853054E-4,5.163650513E0,4.559197426E0
1.878176859E1,3.264939189E-1,2.311022997E0,4.609263420E0
1.880165895E1,6.963961124E-1,4.513925016E-1,4.457933426E0
1.882154822E1,9.159672260E-1,6.198324561E-1,3.587505102E0
1.884143619E1,7.657027841E-1,1.317027450E0,3.425456524E0
1.886132411E1,4.789553881E-1,2.093049765E0,3.738901377E0
1.888121739E1,2.609155178E-1,3.224061012E0,3.801217556E0
1.890110291E1,9.307473898E-2,4.503805161E0,3.395097494E0
1.892103437E1,1.631138101E-2,5.405125618E0,2.801363230E0
1.894087328E1,3.069202602E-2,5.730221272E0,2.318413019E0
1.896078416E1,4.667052254E-2,5.612446308E0,1.989588976E0
1.898065098E1,1.452711523E-1,5.271305561E0,1.800909638E0
1.900054802E1,3.232982159E-1,4.890750885E0,1.640458822E0
1.902046234E1,4.384099543E-1,4.455803394E0,1.445388079E0
1.904031989E1,4.373447299E-1,3.626985312E0,1.139999032E0
1.906022322E1,3.878113925E-1,2.347307444E0,9.123721123E-1
1.908009015E1,4.741618633E-1,9.668321013E-1,9.944615960E-1
1.910003848E1,6.926677823E-1,-8.641702682E-2,1.105312467E0
1.911990635E1,8.813471794E-1,-6.113771796E-1,9.123721123E-1
1.913979656E1,8.813471794E-1,-7.819476128E-1,5.477960706E-1
1.915966666E1,7.251573801E-1,-8.032522798E-1,4.007273614E-1
1.917954432E1,6.377416849E-1,-7.238923907E-1,4.396083653E-1
1.919947932E1,6.404713392E-1,-6.129750013E-1,4.502606690E-1
1.921936229E1,6.394061446E-1,-5.154396296E-1,3.820191920E-1
1.923920229E1,6.324155331E-1,-3.539902568E-1,2.535920441E-1
1.925910380E1,6.361438632E-1,-1.055912226E-1,1.459369212E-1
1.927899901E1,6.426018476E-1,-1.231675688E-2,1.193061024E-1
1.929888510E1,6.452649236E-1,-1.316894293E-1,1.053914949E-1
1.931876796E1,6.334807873E-1,-2.974663079E-1,5.106460676E-2
1.933866312E1,5.567839742E-1,-3.747622967E-1,-3.422060981E-2
1.935857661E1,3.915397227E-1,-3.779579997E-1,-1.179079786E-1
1.937845161E1,2.449370176E-1,-4.019257426E-1,-1.360169351E-1
1.939832650E1,1.734998226E-1,-4.152411520E-1,-1.051251814E-1
1.941823557E1,1.181077138E-1,-3.454017937E-1,-4.487293959E-2
1.943811848E1,2.003969625E-2,-2.223008126E-1,6.790860556E-3
1.945801124E1,-8.175663650E-2,-1.151783243E-1,3.029256500E-2
1.947789661E1,-1.164432839E-1,-7.576470077E-2,6.864095479E-2
1.949778182E1,-8.868064731E-2,-3.734973446E-2,1.688394397E-1
1.951770885E1,-3.222329915E-2,9.587097168E-2,2.599834204E-1
1.953760302E1,1.205044892E-2,3.032585382E-1,2.402766198E-1
1.955749369E1,2.110492997E-2,4.268921316E-1,1.810896099E-1
1.957735161E1,3.814865649E-2,3.922720551E-1,2.168415040E-1
1.959724156E1,7.117088139E-2,2.813546658E-1,3.367467821E-1
1.961717989E1,4.773575440E-2,2.696371078E-1,3.788234890E-1
1.963709229E1,-7.802832127E-2,3.714334369E-1,2.743640840E-1
1.965692541E1,-2.470009029E-1,3.762269914E-1,1.922745556E-1
1.967680781E1,-3.328187466E-1,1.603841484E-1,2.376135439E-1
1.969672187E1,-3.216337860E-1,-1.482005417E-1,3.500621915E-1
1.971659749E1,-3.195033371E-1,-2.063223273E-1,3.782908916E-1
1.973650817E1,-3.936035931E-1,8.202294260E-2,3.330184817E-1
1.975635182E1,-4.633763731E-1,4.801537991E-1,3.410077095E-1
1.977626411E1,-4.649742246E-1,7.845441103E-1,4.177710712E-1
1.979614406E1,-4.074516296E-1,9.385368824E-1,4.796211720E-1
1.981607593E1,-3.530581594E-1,9.188300371E-1,4.523911476E-1
1.983594942E1,-3.013943732E-1,7.690982223E-1,3.969990313E-1
1.985582687E1,-2.752295732E-1,5.478626490E-1,2.994636297E-1
1.987573338E1,-2.736317217E-1,3.016606867E-1,1.677742004E-1
1.989560921E1,-2.842840552E-1,2.716344222E-2,1.320888996E-1
1.991547958E1,-3.589169383E-1,-1.983330697E-1,1.203713343E-1
1.993538192E1,-4.772909582E-1,-2.649767101E-1,6.224955618E-2
1.995529859E1,-5.668371320E-1,-3.001294136E-1,4.254274443E-2
1.997518650E1,-6.190335155E-1,-4.061866701E-1,3.615134582E-2
1.999511854E1,-6.094464660E-1,-5.746266246E-1,1.080545783E-1
2.001495760E1,-5.465311408E-1,-6.801512837E-1,1.672415882E-1
2.003485354E1,-4.553871155E-1,-6.732272506E-1,1.501978636E-1
2.005473291E1,-3.109814525E-1,-6.071162224E-1,1.113168523E-1
2.007462395E1,-1.148454323E-1,-4.424045980E-1,1.091863886E-1
2.009450302E1,7.010564953E-2,-1.818219572E-1,1.432738453E-1
2.011438489E1,1.938058287E-1,3.355484083E-2,1.342193633E-1
2.013428645E1,2.518610358E-1,4.047885537E-2,1.251648813E-1
2.015419234E1,2.646438181E-1,-1.119826213E-1,6.810833514E-2
2.017411432E1,2.316216081E-1,-2.169746459E-1,-1.344856713E-2
2.019395874E1,1.005313694E-1,-1.818219572E-1,-9.660331905E-2
2.021385364E1,-9.560466558E-2,-8.748225868E-2,-2.511286736E-1
2.023373906E1,-3.104488552E-1,-2.296908759E-2,-5.757584572E-1
2.025360703E1,-5.236285925E-1,2.876129188E-2,-1.027750134E0
2.027352088E1,-6.424686909E-1,7.776200771E-2,-1.553242922E0
2.029339171E1,-6.782205701E-1,4.154408723E-2,-2.020746946E0
2.031329442E1,-7.544512749E-1,1.218360290E-2,-2.315483809E0
2.033321479E1,-8.839436769E-1,1.736995578E-1,-2.599568129E0
2.035311567E1,-9.750877023E-1,4.908726811E-1,-2.801030159E0
2.037298161E1,-1.060905457E0,8.618400693E-1,-2.901761293E0
2.039287098E1,-1.183473945E0,1.192794681E0,-2.972133398E0
2.041275072E1,-1.397785425E0,1.541392207E0,-2.923598528E0
2.043263020E1,-1.803372979E0,1.604307532E0,-2.571805477E0
2.045253624E1,-2.237788200E0,8.597096205E-1,-1.920482039E0
2.047240562E1,-2.391781092E0,-3.726318181E-1,-1.244658232E0
2.049231817E1,-2.141850710E0,-1.608635068E0,-9.499215484E-1
2.051220583E1,-1.559234858E0,-2.668808222E0,-1.209505558E0
2.053207380E1,-7.069818377E-1,-3.346762419E0,-2.065486908E0
2.055202807E1,4.661726058E-1,-3.576453209E0,-3.086712360E0
2.057185864E1,2.068349600E0,-3.887234926E0,-4.043957233E0
2.059177484E1,4.151279449E0,-4.798675060E0,-5.590742588E0
2.061166276E1,5.603192329E0,-6.188204765E0,-7.575670719E0
2.063152229E1,5.312716484E0,-7.055903912E0,-9.198619843E0
2.065144807E1,3.900816679E0,-6.914094448E0,-9.779038429E0
2.067132187E1,2.811349630E0,-6.379547596E0,-8.441771507E0
2.069124828E1,1.956966162E0,-5.311385155E0,-4.643084526E0
2.071111874E1,7.742246985E-1,-2.871868134E0,5.968633890E-1
2.073103578E1,4.720313847E-2,8.953949213E-1,4.762790203E0
2.075086515E1,-7.430000603E-2,4.957927227E0,5.860246181E0
2.077075989E1,-1.883465201E-1,7.330334663E0,5.552127838E0
2.079067380E1,-5.555856228E-1,7.368682861E0,5.684882164E0
2.081054322E1,-8.109086156E-1,6.421024799E0,5.929486275E0
2.083044192E1,-7.959953547E-1,5.818702221E0,5.704056740E0
2.085034484E1,-5.684349537E-1,5.615642071E0,5.285619736E0
2.087021057E1,-3.605147898E-1,5.317177296E0,4.923773289E0
2.089011901E1,-1.153780520E-1,4.811857224E0,4.517054081E0
2.091004531E1,1.729672104E-1,4.180240631E0,4.060801506E0
2.092987640E1,3.739633560E-1,3.458079338E0,3.511806965E0
2.094980671E1,3.872787952E-1,2.636185408E0,2.862613916E0
2.096969921E1,2.593176663E-1,1.787128091E0,2.268347263E0
2.098957411E1,1.772947162E-1,8.799490333E-1,1.850975513E0
2.100945833E1,2.028603107E-1,-8.535179496E-2,1.534934163E0
2.102935135E1,3.686372042E-1,-9.796814919E-1,1.315363050E0
2.104923979E1,6.804175973E-1,-1.564427853E0,1.188467145E0
2.106912317E1,9.937958121E-1,-1.718420625E0,1.099986196E0
2.108902161E1,1.191529751E0,-1.554840803E0,1.046191931E0
2.110891171E1,1.177681684E0,-1.233939290E0,9.790157080E-1
2.112879703E1,9.229578376E-1,-8.768199086E-1,8.926652670E-1
2.114869942E1,6.047194600E-1,-4.738955498E-1,8.132388592E-1
2.116855833E1,3.840830922E-1,-1.396786869E-1,7.621076703E-1
2.118845552E1,2.732322812E-1,-1.018629037E-2,7.647707462E-1
2.120836156E1,1.719019860E-1,4.740286991E-2,7.125077248E-1
2.122826026E1,5.146406963E-2,1.257640719E-1,5.611115098E-1
2.124813473E1,-1.890788600E-2,1.183074415E-1,4.289560318E-1
2.126804390E1,-1.464695390E-2,9.986559162E-4,3.569862247E-1
2.128789395E1,2.696371078E-2,-1.695717871E-1,3.175725937E-1
2.130778354E1,6.744256616E-2,-2.825530469E-1,2.685053051E-1
2.132767489E1,6.584471464E-2,-2.457359433E-1,2.061891705E-1
2.134758473E1,3.335510939E-2,-1.029281393E-1,1.949376464E-1
2.136748515E1,2.430062927E-2,2.290250920E-2,1.991985738E-1
2.138736942E1,3.548557684E-2,7.776200771E-2,1.581871063E-1
2.140725880E1,2.802894451E-2,1.161769778E-1,9.207607806E-2
2.142713994E1,-6.591129117E-3,1.673081666E-1,5.958647281E-2
2.144707406E1,-4.820179567E-2,2.259625494E-1,2.656424791E-2
2.146690656E1,-1.003982127E-1,2.744306624E-1,-4.394086078E-3
2.148679760E1,-1.409436464E-1,3.272262812E-1,-3.049229458E-2
2.150671473E1,-1.803572625E-1,3.575854003E-1,-5.073172227E-2
2.152662281E1,-2.187722325E-1,3.618463576E-1,-7.742912322E-2
2.154647197E1,-2.416747361E-1,3.458678424E-1,-9.766855091E-2
2.156638270E1,-2.533923090E-1,3.501287699E-1,-1.115165800E-1
2.158628567E1,-2.459356785E-1,3.740965128E-1,-1.168427467E-1
2.160615697E1,-2.443378270E-1,3.677051365E-1,-1.088534966E-1
2.162605666E1,-2.709686458E-1,3.314872086E-1,-1.125818118E-1
2.164593937E1,-2.826862037E-1,2.515281439E-1,-1.035273373E-1
2.166581546E1,-2.635120153E-1,1.454708874E-1,-8.062482625E-2
2.168574140E1,-2.645772398E-1,1.193726733E-1,-8.382052183E-2
2.170562661E1,-3.077857792E-1,1.902106702E-1,-1.157775149E-1
2.172550369E1,-3.647757471E-1,2.685718834E-1,-1.707035899E-1
2.174539572E1,-3.770259023E-1,2.802894413E-1,-1.856168509E-1
2.176528135E1,-3.322861195E-1,2.707023323E-1,-1.477345079E-1
2.178518755E1,-3.120467067E-1,2.872134447E-1,-7.689651102E-2
2.180507270E1,-3.669061959E-1,3.272262812E-1,-3.861469682E-3
2.182493900E1,-4.687025249E-1,3.384112120E-1,7.449973375E-2
2.184485442E1,-5.337483287E-1,2.840177417E-1,2.264285982E-1
2.186474124E1,-5.369440317E-1,2.089188248E-1,3.868793249E-1
2.188462494E1,-4.927368462E-1,1.646450758E-1,4.454671443E-1
2.190449692E1,-4.378107786E-1,1.598515362E-1,4.502606690E-1
2.192440963E1,-4.063864052E-1,2.003303915E-1,4.300212562E-1
2.194430098E1,-4.186365902E-1,2.307561040E-1,3.922054768E-1
2.196418541E1,-4.730300307E-1,1.923411340E-1,3.367467821E-1
2.198409473E1,-5.214981437E-1,7.563154399E-2,2.812880874E-1
2.200403848E1,-5.236285925E-1,-7.949301600E-2,2.051239312E-1
2.202385822E1,-4.879432917E-1,-1.988656968E-1,8.089113235E-2
2.204373468E1,-4.340824485E-1,-2.804225981E-1,-4.061200842E-2
2.206363864E1,-3.748954535E-1,-3.187709749E-1,-1.269624680E-1
2.208353916E1,-3.120467067E-1,-3.118469715E-1,-2.106498331E-1
2.210339781E1,-2.539249361E-1,-2.777595222E-1,-2.804891765E-1
2.212329864E1,-1.792920381E-1,-2.276269794E-1,-3.390769958E-1
2.214322729E1,-8.761541545E-2,-1.711696386E-1,-3.961335421E-1
2.216312052E1,-4.447348043E-2,-1.039933711E-1,-4.547879100E-1
2.218303874E1,-4.340824485E-2,-2.616478689E-2,-5.224302411E-1
2.220288437E1,-3.928046674E-3,-2.350170352E-2,-6.087806821E-1
2.222277338E1,9.733566642E-2,-1.685065478E-1,-6.903375983E-1
2.224264791E1,2.028603107E-1,-4.131106734E-1,-7.660356760E-1
2.226251473E1,2.982652485E-1,-6.828143597E-1,-8.337445855E-1
2.228244536E1,4.011268020E-1,-8.778851628E-1,-8.816800714E-1
2.230231687E1,5.013253093E-1,-8.682980537E-1,-9.429975152E-1
2.232219854E1,5.743603110E-1,-5.868768096E-1,-1.027750134E0
2.234207999E1,5.945997834E-1,-1.082543060E-1,-1.122622490E0
2.236201666E1,5.898061991E-1,4.274247587E-1,-1.248386502E0
2.238186833E1,6.399387121E-1,8.223599195E-1,-1.377945542E0
2.240175864E1,7.262226343E-1,1.057976127E0,-1.507970452E0
2.242166505E1,6.644390821E-1,1.238666296E0,-1.509568334E0
2.244153885E1,2.401434630E-1,1.373484850E0,-1.245723486E0
2.246142374E1,-6.601116061E-1,1.211968899E0,-7.963948250E-1
2.248131781E1,-1.853971481E0,5.425364971E-1,-4.291557670E-1
2.250123807E1,-2.763281107E0,-7.579798698E-1,-2.324871123E-1
2.252112453E1,-2.959949732E0,-2.422539711E0,-5.171040297E-1
2.254104307E1,-2.391248465E0,-3.809939146E0,-1.500513911E0
2.256088843E1,-1.067829490E0,-4.637158871E0,-3.275924444E0
2.258078166E1,5.391410589E-1,-5.548066616E0,-5.891870499E0
2.260066333E1,1.762960672E0,-7.470013142E0,-8.390041351E0
2.262055145E1,1.897779226E0,-1.043828487E1,-1.009354877E1
2.264042926E1,2.507958114E-1,-1.313851738E1,-1.064414120E1
2.266035453E1,-2.143981218E0,-1.270197201E1,-1.105239201E1
2.268021140E1,-3.460476160E0,-8.064879417E0,-1.131410599E1
2.270011822E1,-1.358837843E0,-2.061159372E0,-7.893842697E0
2.272004182E1,5.348801613E-1,3.233115435E0,4.893414304E-2
2.273987744E1,-1.643787771E-1,6.980139256E0,6.257311821E0
2.275980187E1,-8.055824637E-1,9.191030502E0,7.035464764E0
2.277967390E1,-1.002251148E0,8.992696762E0,5.920432091E0
2.279957526E1,-1.074220896E0,5.875758648E0,5.910844803E0
2.281946109E1,-6.302185059E-1,2.493310928E0,5.296871185E0
2.283933901E1,-1.052583382E-1,2.451367527E-1,4.640687466E0
2.285923687E1,2.716344297E-1,-4.306870401E-1,4.368920326E0
2.287914265E1,4.997274280E-1,4.258269072E-1,3.841230392E0
2.289903447E1,5.487947464E-1,1.843585491E0,3.581646204E0
2.291892713E1,4.869446456E-1,3.179321051E0,3.458012819E0
2.293881062E1,2.390782386E-1,4.217057705E0,3.243168592E0
2.295869973E1,-8.441971987E-2,4.888088226E0,2.927127123E0
2.297858984E1,-6.577813625E-2,5.163650513E0,2.610553265E0
2.299848588E1,1.559234858E-1,5.143411160E0,2.364817381E0
2.301835895E1,2.332194597E-1,4.766584873E0,2.069548130E0
2.303825265E1,1.159772426E-1,3.785838127E0,1.740124702E0
2.305813312E1,6.318163127E-2,2.314751387E0,1.556238890E0
2.307806807E1,2.667742968E-1,8.505885601E-1,1.541325569E0
2.309790906E1,6.196327209E-1,-1.492657810E-1,1.411300659E0
2.311780098E1,9.479908347E-1,-5.511915088E-1,1.062170506E0
2.313772119E1,1.071624398E0,-6.774882078E-1,7.711621523E-1
2.315759947E1,9.368058443E-1,-7.195649147E-1,6.757571697E-1
2.317748619E1,7.001243830E-1,-5.810180306E-1,6.309508085E-1
2.319736958E1,5.988606811E-1,-2.681724131E-1,5.467308760E-1
2.321725520E1,6.468627453E-1,7.243584841E-2,4.337495863E-1
2.323716828E1,6.708304882E-1,2.621804774E-1,3.830844164E-1
2.325705338E1,5.525230765E-1,2.376801223E-1,4.246951044E-1
2.327692833E1,3.894092441E-1,1.374816298E-1,4.273581803E-1
2.329679958E1,2.801562846E-1,1.151117459E-1,3.585840762E-1
2.331672484E1,2.518610358E-1,1.912759095E-1,2.876794934E-1
2.333658666E1,1.900775135E-1,1.800909638E-1,2.701031566E-1
2.335648124E1,1.282274276E-1,4.473978654E-2,3.271597028E-1
2.337636249E1,7.063826174E-2,3.661738476E-3,3.948685527E-1
2.339627692E1,4.454005510E-2,1.059906855E-1,4.428040385E-1
2.341614593E1,1.631138101E-2,2.632457018E-1,4.513259232E-1
2.343605364E1,-4.460663069E-3,3.906742036E-1,4.097818434E-1
2.345594557E1,-2.103835158E-2,4.327509105E-1,3.548557460E-1
2.347582676E1,-3.395430278E-3,3.735639155E-1,3.543231487E-1
2.349571166E1,1.950708032E-2,2.589847744E-1,3.585840762E-1
2.351564062E1,-1.091863867E-2,1.358837932E-1,3.537905216E-1
2.353551244E1,-8.175663650E-2,6.178351492E-2,3.420729637E-1
2.355539802E1,-1.526612043E-1,6.497921795E-2,3.069202602E-1
2.357528947E1,-2.118482143E-1,9.267527610E-2,2.775597870E-1
2.359521270E1,-2.400768995E-1,7.669677585E-2,2.589181960E-1
2.361510515E1,-2.587184608E-1,-2.137123793E-2,2.349504530E-1
2.363497499E1,-2.976660430E-1,-1.460700780E-1,2.077870220E-1
2.365486468E1,-3.195033371E-1,-2.089854032E-1,1.800243855E-1
2.367474942E1,-3.216337860E-1,-2.175072730E-1,1.422086060E-1
2.369463619E1,-3.168402612E-1,-1.908764392E-1,1.288931966E-1
2.371451010E1,-2.870137095E-1,-1.577876359E-1,1.097190008E-1
2.373441265E1,-2.560553849E-1,-1.625811905E-1,7.769543678E-2
2.375429343E1,-2.406095117E-1,-1.609833390E-1,4.627105966E-2
2.377418624E1,-2.320876420E-1,-1.364829838E-1,4.041227698E-2
2.379406619E1,-2.123808414E-1,-9.014534205E-2,4.786890745E-2
2.381404052E1,-1.697049290E-1,-6.611102819E-2,2.123808302E-2
2.383384046E1,-9.560466558E-2,-1.561897993E-1,-4.860125855E-2
2.385376328E1,-2.103835158E-2,-3.342168629E-1,-8.328790963E-2
2.387366286E1,2.057231218E-2,-4.333501160E-1,-1.136470512E-1
2.389352166E1,5.998593569E-2,-4.317522645E-1,-1.637129933E-1
2.391343630E1,1.101184636E-1,-4.019257426E-1,-1.925408691E-1
2.393330208E1,1.271621883E-1,-3.726318181E-1,-2.244978547E-1
2.395321578E1,1.266295761E-1,-4.024583399E-1,-2.682389915E-1
2.397309718E1,1.276948154E-1,-4.967980385E-1,-3.257615864E-1
2.399300369E1,1.362166703E-1,-6.017900705E-1,-3.865464330E-1
2.401287744E1,1.628475040E-1,-6.774882078E-1,-4.489291310E-1
2.403276614E1,1.948710680E-1,-7.265555263E-1,-5.016582012E-1
2.405266505E1,2.316216081E-1,-7.473275661E-1,-5.544537902E-1
2.407254505E1,2.651764452E-1,-7.878063917E-1,-6.013240218E-1
2.409243828E1,2.972000241E-1,-8.299496770E-1,-6.194329858E-1
2.411233921E1,3.584509194E-1,-8.096436858E-1,-6.311505437E-1
2.413220218E1,4.474644363E-1,-7.206301689E-1,-6.477282643E-1
2.415211651E1,5.045210123E-1,-5.868768096E-1,-6.732938290E-1
2.417199427E1,5.109124184E-1,-4.754934013E-1,-7.095117569E-1
2.419187302E1,5.375432372E-1,-4.045888186E-1,-7.298177481E-1
2.421177401E1,6.004585624E-1,-2.846835256E-1,-7.276872993E-1
2.423168588E1,6.548519731E-1,-4.427374899E-2,-7.153705359E-1
2.425156374E1,6.238936782E-1,2.781589627E-1,-7.100443840E-1
2.427145588E1,5.157059431E-1,5.457322001E-1,-7.057834268E-1
2.429132739E1,3.979310989E-1,7.035198212E-1,-6.940658689E-1
2.431122932E1,2.598502934E-1,8.218272924E-1,-6.605110765E-1
2.433113005E1,6.531210244E-2,9.540493488E-1,-6.151720881E-1
2.435104484E1,-1.835529655E-1,1.079280734E0,-5.821498632E-1
2.437087588E1,-4.346150756E-1,1.155511498E0,-5.416709781E-1
2.439077624E1,-6.323489547E-1,9.780170918E-1,-5.112452507E-1
2.441068369E1,-8.391373158E-1,4.279573560E-1,-6.045197248E-1
2.443055958E1,-1.244258761E0,-2.916075289E-1,-8.641037345E-1
2.445043651E1,-2.018683195E0,-1.010639787E0,-1.147655487E0
2.447034994E1,-3.058550358E0,-1.833598971E0,-1.070892096E0
2.449023244E1,-3.897021770E0,-2.715145826E0,-6.215634942E-1
2.451012458E1,-4.071786880E0,-3.716664553E0,-9.287500381E-2
2.453004744E1,-3.631579161E0,-4.653137684E0,4.007273614E-1
2.454991302E1,-2.765944242E0,-5.186153412E0,1.624480337E-1
2.456982088E1,-1.746849060E0,-5.394007206E0,-1.158307791E0
2.458970390E1,-8.871393800E-1,-5.516575336E0,-3.080853701E0
2.460958135E1,-3.541234136E-1,-5.948328018E0,-5.375432014E0
2.462945697E1,-2.209026963E-1,-7.157167435E0,-7.615084648E0
2.464934322E1,-7.949301600E-1,-8.572795868E0,-8.772727013E0
2.466922531E1,-1.925408721E0,-8.178925514E0,-9.540825844E0
2.468913281E1,-2.942373276E0,-5.059257507E0,-1.030459785E1
2.470906036E1,-2.619407892E0,-9.301481843E-1,-8.733845711E0
2.472895744E1,-1.285270214E0,1.999242663E0,-3.282848358E0
2.474882088E1,-4.713656008E-1,3.910603523E0,3.119534969E0
2.476870276E1,-1.436067224E-1,5.831485271E0,5.970564365E0
2.478859890E1,7.756228000E-2,6.814894676E0,5.779222012E0
2.480847786E1,2.209692746E-1,5.857117176E0,5.959912300E0
2.482838578E1,7.596442848E-2,4.450477123E0,6.712499142E0
2.484828713E1,-3.163076341E-1,4.493153095E0,6.442263126E0
2.486815302E1,-7.896040082E-1,5.412581921E0,5.826092243E0
2.488804916E1,-1.048655391E0,5.905052662E0,5.687545300E0
2.490794828E1,-9.410002232E-1,5.804321766E0,5.477561474E0
2.492780171E1,-4.500609636E-1,5.476496220E0,4.768115997E0
2.494770812E1,-7.656362373E-3,4.840685368E0,3.914265394E0
2.496760213E1,1.665758193E-1,3.600354433E0,3.269333363E0
2.498749088E1,2.657090724E-1,2.086125612E0,2.710751772E0
2.500738130E1,4.016594291E-1,9.652342796E-1,2.196909904E0
2.502727541E1,4.298880994E-1,4.146419466E-1,1.698580623E0
2.504716520E1,2.982652485E-1,7.390053943E-3,1.255643368E0
2.506710557E1,1.537930220E-1,-5.031894445E-1,1.072822809E0
2.508694083E1,1.980667710E-1,-7.894042730E-1,9.065132737E-1
2.510684005E1,4.282902479E-1,-7.030537724E-1,6.442662477E-1
2.512671484E1,6.644390821E-1,-4.754934013E-1,4.752936661E-1
2.514662546E1,7.139724493E-1,-2.894770801E-1,4.071187377E-1
2.516650135E1,5.290213227E-1,-1.823545843E-1,3.681711555E-1
2.518641447E1,3.099828064E-1,-1.210371032E-1,2.818207145E-1
2.520625578E1,2.614481449E-1,-8.481918275E-2,1.395455301E-1
2.522614979E1,3.520595133E-1,-1.796914935E-1,2.869471535E-2
2.524607932E1,4.346816540E-1,-3.875450790E-1,-2.995967865E-2
2.526593401E1,4.213662446E-1,-5.666373968E-1,-8.648360521E-2
2.528583203E1,3.739633560E-1,-6.620423198E-1,-1.099187359E-1
2.530570968E1,3.227656186E-1,-6.343462467E-1,-1.221689135E-1
2.532559833E1,2.844172120E-1,-4.808195531E-1,-1.115165800E-1
2.534550609E1,2.518610358E-1,-2.703028917E-1,-8.382052183E-2
2.536539322E1,2.209692746E-1,-8.748225868E-2,-8.009220660E-2
2.538528635E1,1.729672104E-1,2.716344222E-2,-6.191666797E-2
2.540519255E1,1.186403260E-1,1.193726733E-1,-2.623136342E-2
2.542510046E1,7.649704814E-2,2.190385461E-1,-6.657706108E-4
2.544494031E1,6.105116755E-2,2.760285139E-1,1.531272475E-2
2.546485796E1,5.039883777E-2,2.738980353E-1,2.762948163E-2
2.548472437E1,1.684399694E-2,2.509955168E-1,3.721657768E-2
2.550465307E1,-1.784265228E-2,2.142449915E-1,6.011908874E-2
2.552454312E1,-1.145125460E-2,1.827540398E-1,3.881442919E-2
2.554441114E1,1.950708032E-2,1.199052930E-1,-1.731003635E-3
2.556430854E1,3.442034125E-2,4.726971500E-3,-6.657706108E-4
2.558418755E1,2.643109486E-2,-4.640421271E-2,2.177070081E-2
2.560409494E1,7.789516356E-3,3.834838793E-2,5.053199083E-2
2.562403526E1,-3.595161438E-2,1.790257245E-1,6.491263956E-2
2.564386979E1,-7.057169080E-2,2.408758104E-1,5.372769013E-2
2.566376354E1,-6.897383928E-2,1.715690941E-1,2.496639825E-2
2.568365687E1,-5.725627393E-2,2.663082629E-2,2.529928461E-3
2.570351812E1,-4.820179567E-2,-7.143718749E-2,-3.049229458E-2
2.572340322E1,-6.204982474E-2,-8.801487833E-2,-6.990591437E-2
2.574331130E1,-7.270215452E-2,-7.356765866E-2,-9.074454010E-2
2.576321150E1,-4.234301299E-2,-3.042571805E-2,-1.045925692E-1
2.578310296E1,-6.058512721E-3,1.005313639E-2,-1.099187359E-1
2.580302494E1,-4.460663069E-3,2.822867595E-2,-1.104513481E-1
2.582288026E1,-3.928046674E-3,1.804238372E-2,-1.056578010E-1
2.584276385E1,1.737661287E-2,-3.521926701E-2,-8.754883707E-2
2.586264718E1,3.442034125E-2,-1.013302878E-1,-7.902697474E-2
2.588259176E1,3.388772532E-2,-1.418091506E-1,-7.742912322E-2
2.590244953E1,1.897446252E-2,-1.706370115E-1,-6.777545065E-2
2.592232541E1,1.684399694E-2,-2.233660519E-1,-4.913387448E-2
2.594222114E1,2.057231218E-2,-2.777595222E-1,-2.463351376E-2
2.596209812E1,3.069202602E-2,-2.633788586E-1,-2.250304818E-2
2.598203630E1,4.507267103E-2,-1.679739356E-1,-4.327509180E-2
2.600187390E1,5.945331976E-2,-5.705654249E-2,-6.617759913E-2
2.602176328E1,7.223611325E-2,-5.392742343E-3,-8.115743846E-2
2.604168473E1,8.774857223E-2,-4.374112934E-2,-8.382052183E-2
2.606156057E1,1.074553803E-1,-1.354177445E-1,-1.067230329E-1
2.608145869E1,1.335535944E-1,-1.727674752E-1,-1.424083412E-1
2.610134624E1,1.516625583E-1,-1.348851323E-1,-1.760297567E-1
2.612125453E1,1.687062830E-1,-8.428656310E-2,-1.866820902E-1
2.614112541E1,1.868818253E-1,-4.587159678E-2,-2.138455361E-1
2.616102526E1,2.012624592E-1,-6.504578888E-2,-2.511286736E-1
2.618089505E1,2.087190896E-1,-1.322220564E-1,-2.842174768E-1
2.620077760E1,2.145778835E-1,-1.935395300E-1,-3.028590679E-1
2.622069203E1,1.922079772E-1,-2.009961605E-1,-3.124461472E-1
2.624056291E1,1.489994675E-1,-1.647116542E-1,-3.065873682E-1
2.626044057E1,1.202381775E-1,-1.109173894E-1,-3.001959920E-1
2.628035218E1,1.037270650E-1,-7.143718749E-2,-2.863479555E-1
2.630024187E1,8.774857223E-2,-4.800206423E-2,-2.623802125E-1
2.632013713E1,5.892070010E-2,-3.575188294E-2,-2.410089672E-1
2.634005114E1,3.069202602E-2,-3.095833398E-2,-2.276935577E-1
2.635992390E1,3.761604056E-2,-1.497983932E-2,-2.404763550E-1
2.637982426E1,6.105116755E-2,1.058575325E-2,-2.682389915E-1
2.639971192E1,5.412715301E-2,3.941362351E-2,-3.071199954E-1
2.641958426E1,1.684399694E-2,7.829462737E-2,-3.657743931E-1
2.643945458E1,-4.500609636E-2,1.374816298E-1,-4.691685736E-1
2.645937479E1,-1.579873711E-1,2.163754553E-1,-6.738264561E-1
2.647924468E1,-3.019269705E-1,2.414084375E-1,-9.818785191E-1
2.649913744E1,-3.952014446E-1,1.657103151E-1,-1.338465333E0
2.651906994E1,-4.644415975E-1,-8.055824786E-3,-1.562896609E0
2.653896697E1,-6.046528816E-1,-1.685065478E-1,-1.690258503E0
2.655882598E1,-8.402025700E-1,-5.652392656E-2,-1.930668235E0
2.657871942E1,-1.064101219E0,2.818872929E-1,-2.253633499E0
2.659858244E1,-1.843851805E0,-2.079201639E-1,-2.240318298E0
2.661848255E1,-3.065541029E0,-2.919803619E0,-8.491904736E-1
2.663838276E1,-3.454084635E0,-6.343263149E0,1.343591690E0
2.665826916E1,-2.731323957E0,-7.592115402E0,1.705504656E0
2.667814604E1,-1.301248670E0,-6.882137775E0,-3.796224296E-1
2.669806526E1,-2.145113051E-1,-5.851325035E0,-3.622391462E0
2.671791739E1,2.385456264E-1,-5.290080547E0,-7.139125347E0
2.673781499E1,-1.846182048E-1,-5.585882187E0,-9.900075912E0
2.675769979E1,-1.258106828E0,-6.158844471E0,-1.156676579E1
2.677761380E1,-2.005900383E0,-5.383887291E0,-1.232361412E1
2.679750703E1,-1.364696622E0,-2.869737864E0,-1.005460167E1
2.681736437E1,-3.418732285E-1,-3.299559355E-1,-3.680979252E0
2.683726859E1,-5.033891797E-1,2.263087511E0,3.445230007E0
2.685725083E1,-4.308867455E-1,5.212718010E0,6.649583817E0
2.687708963E1,1.346188188E-1,6.843123436E0,6.270627499E0
2.689694468E1,4.437361360E-1,5.930085659E0,6.007315159E0
2.691685484E1,2.758953571E-1,4.260732174E0,6.603246212E0
2.693670895E1,-7.057169080E-2,3.892428160E0,6.452382565E0
2.695662781E1,-4.868780673E-1,4.461195946E0,5.770699978E0
2.697650526E1,-8.199630976E-1,4.985090733E0,5.061254978E0
2.699640697E1,-9.127049446E-1,5.100735188E0,4.543684959E0
2.701628838E1,-6.499252915E-1,4.940351009E0,4.066660404E0
2.703615770E1,-1.127149686E-1,4.558198452E0,3.519796133E0
2.705608869E1,4.245619476E-1,4.144022942E0,3.015608072E0
2.707597890E1,7.534526587E-1,3.740033150E0,2.409557104E0
2.709586062E1,7.091788650E-1,3.185712576E0,1.730005026E0
2.711572958E1,4.933360517E-1,2.365416527E0,1.259371758E0
2.713564421E1,4.250945449E-1,1.428943515E0,1.046724558E0
2.715552979E1,5.348801613E-1,5.670368671E-1,8.302825689E-1
2.717539604E1,6.308176517E-1,-3.310211599E-1,5.382089615E-1
2.719531348E1,6.969286799E-1,-1.208373666E0,3.932707310E-1
2.721519036E1,8.509880304E-1,-1.762694359E0,4.294886291E-1
2.723509848E1,1.077483177E0,-1.888990998E0,4.284234047E-1
2.725496953E1,1.245923162E0,-1.811695099E0,2.973331809E-1
2.727485994E1,1.205444336E0,-1.731203437E0,1.906767040E-1
2.729472765E1,9.836761355E-1,-1.492990613E0,1.528609395E-1
2.731464598E1,8.270202875E-1,-1.083075643E0,1.294258088E-1
2.733453598E1,8.040512204E-1,-7.356100082E-1,7.023879886E-2
2.735442187E1,8.173666000E-1,-5.501262546E-1,-3.049229458E-2
2.737429374E1,7.816812992E-1,-4.797543287E-1,-1.056578010E-1
2.739418572E1,7.049179673E-1,-5.037220716E-1,-1.211036816E-1
2.741409734E1,5.887410045E-1,-5.356790423E-1,-7.256899774E-2
2.743396937E1,4.677704573E-1,-4.242956340E-1,-1.877473295E-2
2.745384437E1,4.011268020E-1,-2.473337948E-1,4.660394508E-3
2.747376411E1,3.493964374E-1,-1.780936420E-1,2.709686570E-2
2.749366828E1,2.908086181E-1,-2.238986641E-1,4.999937490E-2
2.751355536E1,2.406760901E-1,-2.633788586E-1,5.426030606E-2
2.753341958E1,1.836861223E-1,-2.681724131E-1,5.159722641E-2
2.755330781E1,8.934641629E-2,-2.345509976E-1,7.396712154E-2
2.757322932E1,-1.797580742E-3,-1.125152409E-1,8.568467945E-2
2.759310499E1,-4.500609636E-2,3.248960897E-2,5.532554165E-2
2.761301359E1,-3.861469775E-2,5.326165259E-2,-9.720250964E-3
2.763288317E1,-1.038602181E-2,-7.037195563E-2,-7.796174288E-2
2.765277426E1,1.418091450E-2,-1.940721422E-1,-1.205710620E-1
2.767268026E1,3.282249346E-2,-1.625811905E-1,-1.551911384E-1
2.769256911E1,4.187697172E-2,-4.959991202E-2,-1.861494780E-1
2.771245651E1,3.442034125E-2,-1.338198967E-2,-1.754971445E-1
2.773235015E1,2.856156044E-2,-4.693682864E-2,-1.205710620E-1
2.775220656E1,2.483324520E-2,-5.226299539E-2,-7.849435508E-2
2.777209776E1,1.684399694E-2,-3.308879957E-2,-6.830807030E-2
2.779204322E1,4.061201122E-3,-5.439346284E-2,-6.777545065E-2
2.781190614E1,4.061201122E-3,-1.316894293E-1,-5.605788901E-2
2.783178406E1,1.524614729E-2,-2.196377367E-1,-3.528584540E-2
2.785168437E1,7.789516356E-3,-2.553230524E-1,-2.569874749E-2
2.787158203E1,-1.358172111E-2,-2.382793128E-1,-3.901416063E-2
2.789144749E1,-2.370143496E-2,-2.361488491E-1,-5.925358832E-2
2.791134572E1,-1.251648832E-2,-2.655093372E-1,-7.097115368E-2
2.793123322E1,2.463351469E-3,-2.579861283E-1,-7.902697474E-2
2.795115177E1,-1.304910425E-2,-1.780936420E-1,-9.553808719E-2
2.797104958E1,-3.754946589E-2,-9.760197252E-2,-1.109839678E-1
2.799088890E1,-3.488638252E-2,-5.439346284E-2,-1.168427467E-1
2.801080718E1,-1.038602181E-2,-3.521926701E-2,-1.285603046E-1
2.803068197E1,-1.198387146E-2,-4.161066562E-2,-1.413431019E-1
2.805059307E1,-3.914731368E-2,-7.789516449E-2,-1.525280476E-1
2.807048265E1,-3.541899845E-2,-1.087869257E-1,-1.482671201E-1
2.809035593E1,8.322132751E-3,-8.588441461E-2,-1.493323594E-1
2.811024343E1,5.412715301E-2,-3.681711480E-2,-1.530606747E-1
2.813012328E1,6.850779802E-2,-2.197043039E-3,-1.429409534E-1
2.815004390E1,5.785546824E-2,3.195698932E-2,-1.424083412E-1
2.816994760E1,6.477948278E-2,2.343512699E-2,-1.589194536E-1
2.818980161E1,1.063901484E-1,-7.736254483E-2,-1.723014414E-1
2.820972869E1,1.479342431E-1,-2.132463306E-1,-1.691057384E-1
2.822959890E1,1.607170254E-1,-2.878792286E-1,-1.658434719E-1
2.824946593E1,1.601844132E-1,-2.607157826E-1,-1.631803811E-1
2.826936453E1,1.697715074E-1,-1.013302878E-1,-1.914756298E-1
2.828924624E1,1.980667710E-1,1.662429273E-1,-2.442046702E-1
2.830913453E1,1.985993832E-1,4.439358711E-1,-2.922067344E-1
2.832903489E1,1.703041345E-1,6.603113413E-1,-3.545894325E-1
2.834892447E1,1.015966013E-1,7.205635905E-1,-4.302209914E-1
2.836881718E1,5.659050308E-3,5.825493336E-1,-4.803535044E-1
2.838872255E1,-5.139749497E-2,3.448026180E-1,-5.464645624E-1
2.840859640E1,-2.263620123E-2,1.129812747E-1,-6.807504892E-1
2.842848999E1,2.856156044E-2,-7.143718749E-2,-8.571797013E-1
2.844837109E1,7.809489965E-2,-1.759631783E-1,-9.483237267E-1
2.846828578E1,1.644453406E-1,2.663082629E-2,-9.813459516E-1
2.848817619E1,2.550567389E-1,9.151017666E-1,-1.171623230E0
2.850804760E1,2.055234015E-1,2.451234341E0,-1.428011417E0
2.852793416E1,-7.197646499E-1,3.294965506E0,-1.166296959E0
2.854781088E1,-2.635386467E0,1.904370308E0,-1.013968661E-1
2.856773140E1,-4.617053032E0,-1.190264702E0,1.033342600E0
2.858761343E1,-4.984824657E0,-4.567852497E0,1.620219469E0
2.860751171E1,-3.715266466E0,-7.185396194E0,9.859397411E-1
2.862740161E1,-1.728740096E0,-8.063814163E0,-1.668953896E0
2.864728135E1,-4.820179567E-2,-7.750369072E0,-5.238416672E0
2.866719291E1,6.270893812E-1,-7.981191635E0,-8.139578819E0
2.868709994E1,-3.211011887E-1,-9.283838272E0,-1.032217503E1
2.870696380E1,-2.660952091E0,-1.067070580E1,-1.121550560E1
2.872685979E1,-4.727371216E0,-9.501811981E0,-1.074913311E1
2.874673666E1,-3.773854256E0,-4.825838566E0,-8.222733498E0
2.876660395E1,-5.220307708E-1,1.151117459E-1,-2.946035147E0
2.878651640E1,1.215564013E0,2.779525757E0,3.212809324E0
2.880641229E1,1.251781940E0,4.537892818E0,6.777012348E0
2.882629426E1,1.104713202E0,5.814441204E0,6.458774090E0
2.884616953E1,9.746216536E-1,5.201000214E0,5.308588982E0
2.886608020E1,8.221601844E-1,3.374391794E0,5.572433472E0
2.888597505E1,8.861407042E-1,2.537584782E0,5.617173672E0
2.890586630E1,8.291507363E-1,2.686784029E0,5.302730083E0
2.892576609E1,5.658384562E-1,3.253887415E0,5.191812515E0
2.894561739E1,2.481327206E-1,4.088031292E0,5.195540905E0
2.896553104E1,7.756228000E-2,5.073039055E0,4.900271416E0
2.898540468E1,1.655105799E-1,6.155581951E0,4.144488811E0
2.900531338E1,2.737648785E-1,6.958235264E0,3.332714558E0
2.902521359E1,2.635785937E-1,6.893256187E0,2.938312054E0
2.904508676E1,1.820882708E-1,5.901324272E0,2.855157375E0
2.906495906E1,2.673069239E-1,4.666386604E0,2.548170567E0
2.908486062E1,5.418041348E-1,3.622724295E0,1.999708652E0
2.910474890E1,8.136382699E-1,2.560487270E0,1.557304144E0
2.912462395E1,9.106410742E-1,1.181077123E0,1.251915097E0
2.914452421E1,9.133041501E-1,-3.427387178E-1,9.336767197E-1
2.916441041E1,9.469255805E-1,-1.576145411E0,6.730940938E-1
2.918430661E1,9.799478054E-1,-2.302101612E0,5.339480639E-1
2.920418692E1,1.031678200E0,-2.530727386E0,3.938033283E-1
2.922410223E1,1.042330503E0,-2.380928993E0,1.794917583E-1
2.924399400E1,1.132409334E0,-1.992385268E0,2.529928461E-3
2.926385458E1,1.219292402E0,-1.576678038E0,-6.990591437E-2
2.928377390E1,1.122289538E0,-1.320822358E0,-1.285603046E-1
2.930364031E1,9.890022874E-1,-1.058575273E0,-2.053236663E-1
2.932352322E1,8.925321102E-1,-7.787519097E-1,-2.303566486E-1
2.934344203E1,7.539852262E-1,-5.911377668E-1,-1.642456204E-1
2.936331822E1,5.498600006E-1,-4.024583399E-1,-7.955959439E-2
2.938326104E1,3.766264617E-1,-1.951373816E-1,-4.167724028E-2
2.940311682E1,2.534588873E-1,-1.817553863E-2,-2.729659714E-2
2.942303421E1,1.250317246E-1,9.214265645E-2,-3.848154470E-2
2.944288062E1,1.790923066E-2,1.342859417E-1,-8.275528997E-2
2.946279421E1,-3.701684624E-2,9.374050796E-2,-1.237667650E-1
2.948266239E1,-4.553871229E-2,1.111837011E-2,-1.253646165E-1
2.950255197E1,-2.423405088E-2,7.922670804E-3,-1.221689135E-1
2.952243515E1,-1.517957076E-2,1.140465140E-1,-1.312233955E-1
2.954233322E1,-3.488638252E-2,2.456693649E-1,-1.317560077E-1
2.956222411E1,-4.340824485E-2,3.117803931E-1,-1.397452503E-1
2.958212156E1,-4.021254554E-2,2.728328109E-1,-1.578542143E-1
2.960203802E1,-4.074516147E-2,1.795583367E-1,-1.781602204E-1
2.962190046E1,-4.447348043E-2,1.529275179E-1,-1.866820902E-1
2.964178093E1,-6.045197323E-2,2.515281439E-1,-1.701709777E-1
2.966167499E1,-7.376738638E-2,4.205007255E-1,-1.466692686E-1
2.968157072E1,-5.938674137E-2,6.102453470E-1,-1.269624680E-1
2.970144739E1,-4.766917601E-2,7.653699517E-1,-7.902697474E-2
2.972133864E1,-3.967992961E-2,7.978595495E-1,-2.197043039E-2
2.974124703E1,-2.583190054E-2,6.774216294E-1,1.478010789E-2
2.976115953E1,-3.395430278E-3,4.753602445E-1,2.336854860E-2
2.978105692E1,5.126433913E-3,2.685718834E-1,2.283593267E-2
2.980090020E1,-1.677742042E-2,1.199052930E-1,2.336854860E-2
2.982080249E1,-3.914731368E-2,2.396774292E-2,1.997311832E-3
2.984070973E1,-3.115806542E-2,-1.103847697E-1,-4.167724028E-2
2.986059473E1,6.191667169E-3,-3.161078990E-1,-9.820117056E-2
2.988048187E1,2.696371078E-2,-4.744281471E-1,-1.195058301E-1
2.990037416E1,1.631138101E-2,-3.987300396E-1,-1.189732105E-1
2.992025041E1,-7.123745978E-3,-1.151783243E-1,-1.237667650E-1
2.994015374E1,-2.956021577E-2,1.752974093E-1,-1.328212470E-1
2.996006015E1,-3.595161438E-2,3.155086935E-1,-1.535932869E-1
2.997994130E1,-2.529928461E-2,2.786915898E-1,-1.840189993E-1
2.999980145E1,2.483324520E-2,1.135138944E-1,-2.298240215E-1
3.001969635E1,1.090532318E-1,-9.919982404E-2,-2.778261006E-1
3.003961296E1,1.788925678E-1,-2.788247466E-1,-3.257615864E-1
3.005949598E1,2.289585173E-1,-4.125780761E-1,-3.865464330E-1
3.007937645E1,2.753627300E-1,-5.356790423E-1,-4.350145459E-1
3.009926296E1,3.062545061E-1,-6.449986100E-1,-4.515922368E-1
3.011916828E1,3.339505494E-1,-7.340121269E-1,-4.611793160E-1
3.013906026E1,3.488638103E-1,-7.915347219E-1,-4.467986822E-1
3.015895208E1,3.360810280E-1,-7.372078300E-1,-4.243622124E-1
3.017882114E1,3.408745527E-1,-5.607786179E-1,-3.987966180E-1
3.019870499E1,3.755612075E-1,-3.443365693E-1,-3.631113172E-1
3.021862390E1,3.936701715E-1,-2.185724974E-1,-3.262941837E-1
3.023849833E1,3.734307587E-1,-2.639114857E-1,-2.863479555E-1
3.025836468E1,3.659741282E-1,-3.838167787E-1,-2.714346945E-1
3.027826218E1,3.947354257E-1,-4.983958900E-1,-2.735651433E-1
3.029817869E1,4.298880994E-1,-6.033879519E-1,-2.751629949E-1
3.031807890E1,4.325511754E-1,-6.844122410E-1,-2.815544009E-1
3.033795953E1,4.085834324E-1,-7.308164239E-1,-2.927393615E-1
3.035785848E1,3.840830922E-1,-7.995239496E-1,-3.284246624E-1
3.037773223E1,3.899418712E-1,-9.684965611E-1,-3.913399875E-1
3.039763182E1,4.282902479E-1,-1.248852611E0,-4.585162401E-1
3.041752609E1,4.453339875E-1,-1.574547529E0,-5.149735808E-1
3.043739718E1,3.968658745E-1,-1.859164476E0,-5.810846090E-1
3.045728770E1,3.030588031E-1,-2.068083286E0,-6.738264561E-1
3.047718656E1,1.964689195E-1,-2.115020275E0,-8.150364161E-1
3.049712052E1,9.946613014E-2,-1.805303693E0,-1.010173798E0
3.051706166E1,-1.073888019E-1,-1.023422599E0,-1.191929221E0
3.053686364E1,-5.977289081E-1,3.277588785E-1,-1.313432336E0
3.055675916E1,-1.494788289E0,2.289718390E0,-1.495187759E0
3.057662588E1,-2.896568298E0,4.003878117E0,-1.508503079E0
3.059650411E1,-4.383633614E0,3.456481457E0,-6.583805680E-1
3.061640916E1,-5.388348103E0,3.554549515E-1,9.304810166E-1
3.063632192E1,-5.590342999E0,-3.485309362E0,2.322141409E0
3.065618229E1,-4.800405979E0,-5.957382202E0,2.638249397E0
3.067609052E1,-3.304286242E0,-6.352317333E0,1.024820805E0
3.069599171E1,-1.399383307E0,-6.089071751E0,-2.490847588E0
3.071584588E1,1.191729456E-1,-6.836865425E0,-5.892935753E0
3.073575369E1,3.366136253E-1,-8.482184410E0,-8.312279701E0
3.075566234E1,-9.953271151E-1,-9.658001900E0,-9.687894821E0
3.077554124E1,-3.165206671E0,-8.867598534E0,-1.007224464E1
3.079542052E1,-4.441156387E0,-5.933414459E0,-9.741223335E0
3.081531822E1,-3.738701582E0,-2.323939085E0,-7.672141075E0
3.083522109E1,-9.436632991E-1,1.001984835E0,-3.798288107E0
3.085511650E1,1.205976963E0,3.131851673E0,9.923311472E-1
3.087500494E1,1.116430759E0,3.910070896E0,5.022906780E0
3.089488265E1,5.316844583E-1,4.419052601E0,6.249855518E0
3.091475020E1,2.619807422E-1,4.560328960E0,5.464712143E0
3.093467046E1,1.202381775E-1,3.600354433E0,5.050069809E0
3.095452192E1,1.133141592E-1,2.297707558E0,5.590542793E0
3.097444307E1,3.153089881E-1,1.961959481E0,5.600662231E0
3.099433932E1,2.801562846E-1,2.402699709E0,5.318175793E0
3.101420265E1,-3.169068322E-2,3.149960518E0,5.350132942E0
3.103412369E1,-2.459356785E-1,4.052878857E0,5.319241047E0
3.105406583E1,-2.342181057E-1,4.801737785E0,5.055928707E0
3.107389234E1,6.637733430E-2,5.333155632E0,4.550675392E0
3.109376307E1,6.121761203E-1,5.804854393E0,3.749021053E0
3.111369453E1,1.102050185E0,6.052720547E0,2.940975189E0
3.113353213E1,1.252847195E0,5.755254269E0,2.319478273E0
3.115342937E1,1.202248573E0,4.881696701E0,1.811561942E0
3.117333854E1,1.252847195E0,3.601419687E0,1.408637524E0
3.119325739E1,1.555040479E0,2.163421631E0,1.191130280E0
3.121316729E1,1.936726809E0,8.271534443E-1,9.832766652E-1
3.123304369E1,2.138189077E0,-2.756290436E-1,7.178338766E-1
3.125291416E1,2.112024307E0,-1.063901424E0,4.491954446E-1
3.127280093E1,1.923877478E0,-1.455640912E0,3.154421151E-1
3.129267223E1,1.541192412E0,-1.523882389E0,3.394098580E-1
3.131256833E1,1.177681684E0,-1.494588494E0,4.673044086E-1
3.133247062E1,1.019428015E0,-1.433271050E0,6.117766500E-1
3.135235145E1,9.783499837E-1,-1.194525719E0,6.080483198E-1
3.137222473E1,9.298818707E-1,-9.088435173E-1,5.174369216E-1
3.139211874E1,8.275529146E-1,-7.931325436E-1,4.236298501E-1
3.141204286E1,6.990591884E-1,-8.922657967E-1,3.271597028E-1
3.143192276E1,6.217632294E-1,-1.079347372E0,2.802228630E-1
3.145181880E1,6.334807873E-1,-1.125218987E0,2.637117505E-1
3.147170218E1,6.324155331E-1,-9.860728979E-1,2.077870220E-1
3.149159645E1,5.423367620E-1,-7.430666089E-1,1.624480337E-1
3.151147541E1,3.947354257E-1,-4.157737792E-1,1.651111245E-1
3.153136135E1,2.246975899E-1,-1.141130850E-1,1.853505522E-1
3.155126526E1,8.182321489E-2,4.633763805E-2,2.061891705E-1
3.157117380E1,-3.928046674E-3,8.894696087E-2,2.019282281E-1
3.159109218E1,-3.914731368E-2,6.604444981E-2,1.597849578E-1
3.161094151E1,-7.163692266E-2,-8.055824786E-3,1.395455301E-1
3.163082333E1,-1.153780520E-1,-6.824149191E-2,1.097190008E-1
3.165072656E1,-1.308239251E-1,-6.557840854E-2,2.603163198E-2
3.167058901E1,-1.276282370E-1,-4.267589748E-2,-4.966649041E-2
3.169048812E1,-1.127149686E-1,-4.107804969E-2,-9.979902208E-2
3.171039484E1,-8.015878499E-2,-4.533898085E-2,-1.509302109E-1
3.173028291E1,-6.684337556E-2,-5.971962586E-2,-1.856168509E-1
3.175014078E1,-7.430000603E-2,-1.114500016E-1,-2.047910541E-1
3.177004765E1,-8.814803511E-2,-1.717022508E-1,-2.058562785E-1
3.178994708E1,-8.175663650E-2,-1.669086963E-1,-2.149107605E-1
3.180980979E1,-4.181039706E-2,-1.370155960E-1,-2.015953511E-1
3.182971921E1,3.328853054E-4,-1.423417628E-1,-1.530606747E-1
3.184962484E1,2.909417637E-2,-1.657768935E-1,-1.029947177E-1
3.186949473E1,4.720313847E-2,-1.652442664E-1,-7.742912322E-2
3.188938895E1,7.649704814E-2,-1.476679295E-1,-1.083208844E-1
3.190928364E1,1.372819096E-1,-1.748979539E-1,-1.360169351E-1
3.192915494E1,2.151104957E-1,-2.063223273E-1,-1.269624680E-1
3.194906854E1,2.748301327E-1,-2.009961605E-1,-1.200384498E-1
3.196896057E1,2.956021726E-1,-2.143115699E-1,-1.093861163E-1
3.198885312E1,2.844172120E-1,-2.782921195E-1,-1.013968661E-1
3.200871562E1,2.924064696E-1,-3.485974967E-1,-1.195058301E-1
3.202863317E1,3.041240275E-1,-3.262276053E-1,-1.429409534E-1
3.204851541E1,2.934716940E-1,-2.436054796E-1,-1.770949960E-1
3.206839291E1,2.726996541E-1,-1.946047544E-1,-2.074541301E-1
3.208828645E1,2.774932086E-1,-1.860828996E-1,-2.330197245E-1
3.210815666E1,3.051892519E-1,-1.908764392E-1,-2.580527067E-1
3.212805739E1,3.232982159E-1,-1.834198087E-1,-2.847501040E-1
3.214796703E1,3.222329915E-1,-1.205044836E-1,-2.879458070E-1
3.216786463E1,3.035914004E-1,1.531272428E-3,-2.884784043E-1
3.218775630E1,2.684387267E-1,1.006645188E-1,-2.863479555E-1
3.220761682E1,2.284259051E-1,1.779604852E-1,-2.815544009E-1
3.222753005E1,2.039255500E-1,2.493976802E-1,-2.645106614E-1
3.224742328E1,1.778273433E-1,2.818872929E-1,-2.324871123E-1
3.226731942E1,1.378145218E-1,2.643109560E-1,-2.234326303E-1
3.228722140E1,9.307473898E-2,1.992651522E-1,-2.218347788E-1
3.230710026E1,4.720313847E-2,1.215031445E-1,-1.968017966E-1
3.232702156E1,-2.956021577E-2,6.125089899E-2,-1.845516264E-1
3.234687708E1,-1.105845049E-1,-3.308879957E-2,-2.319544852E-1
3.236674104E1,-1.297587007E-1,-2.894770801E-1,-3.342834413E-1
3.238664822E1,-1.212368309E-1,-5.650395155E-1,-4.867449105E-1
3.240654635E1,-2.342181057E-1,-6.188337803E-1,-6.349454522E-1
3.242643510E1,-5.833482146E-1,-4.003278911E-1,-7.410027385E-1
3.244632499E1,-1.107243180E0,2.063889056E-3,-8.726255894E-1
3.246617921E1,-1.756436110E0,3.661072850E-1,-1.042130828E0
3.248607786E1,-2.690778732E0,5.932016373E-1,-1.101850390E0
3.250601197E1,-3.921522141E0,4.189028740E-1,-9.211602807E-1
3.252588932E1,-4.922508240E0,-6.300853491E-1,-4.264926612E-1
3.254574614E1,-5.111187935E0,-2.480128765E0,2.748967111E-1
3.256565890E1,-4.378307343E0,-4.253941536E0,4.438692927E-1
3.258554380E1,-2.872001410E0,-4.959591866E0,-7.095117569E-1
3.260542786E1,-1.044394374E0,-4.934026241E0,-3.015807867E0
3.262532661E1,2.603828907E-1,-5.019311428E0,-6.017168522E0
3.264521619E1,6.873416305E-1,-5.776159286E0,-9.098954201E0
3.266512255E1,2.705691755E-1,-7.227539539E0,-1.114513397E1
3.268502864E1,-1.437199116E0,-7.947637081E0,-1.200058270E1
3.270487249E1,-2.860283852E0,-6.434406757E0,-1.247441101E1
3.272478770E1,-2.183927536E0,-3.531713486E0,-1.061691093E1
3.274468026E1,-5.512581021E-2,-7.249576449E-1,-4.153809547E0
3.276456703E1,8.744231462E-1,1.515826583E0,3.388705969E0
3.278444249E1,7.208964229E-1,3.679248333E0,7.411225796E0
3.280434015E1,4.757596850E-1,5.618305206E0,7.082933903E0
3.282421119E1,1.324883550E-1,5.707318783E0,5.428493977E0
3.284412348E1,-4.718982279E-1,3.612604618E0,5.553725719E0
3.286404380E1,-7.613753080E-1,1.805237055E0,6.347923279E0
3.288389453E1,-7.757559419E-1,1.714625716E0,6.436936855E0
3.290378374E1,-7.064492106E-1,2.842973709E0,5.960977554E0
3.292368249E1,-6.541862488E-1,4.318854332E0,5.308056355E0
3.294355630E1,-6.579810977E-1,5.318242550E0,4.816584110E0
3.296347359E1,-4.783562124E-1,5.497867584E0,4.594349861E0
3.298335484E1,2.463351469E-3,5.127964973E0,4.436029911E0
3.300325426E1,5.839474201E-1,4.675440788E0,4.148217201E0
3.302313432E1,8.930647373E-1,4.212796688E0,3.564602613E0
3.304306765E1,8.429988027E-1,3.334911823E0,2.723534584E0
3.306290687E1,7.933988571E-1,1.952305794E0,2.070080757E0
3.308281348E1,1.073222280E0,5.233622789E-1,1.800909638E0
3.310269437E1,1.562497139E0,-4.296217859E-1,1.596251726E0
3.312258869E1,1.865289569E0,-1.014900804E0,1.177282214E0
3.314247999E1,1.787461042E0,-1.600645781E0,7.375407219E-1
3.316235171E1,1.572150826E0,-2.011026859E0,4.454671443E-1
3.318226723E1,1.414363146E0,-2.041985035E0,2.141784132E-1
3.320212661E1,1.348252177E0,-1.840522885E0,5.479292199E-2
3.322205182E1,1.309903741E0,-1.626211405E0,-2.836182900E-2
3.324191239E1,1.204911709E0,-1.433803678E0,-4.114462435E-2
3.326179385E1,1.063102603E0,-1.190797329E0,-2.250304818E-2
3.328171942E1,9.495886564E-1,-9.823445678E-1,-4.167724028E-2
3.330158364E1,9.240230918E-1,-9.818119407E-1,-8.115743846E-2
3.332149062E1,9.517191052E-1,-1.115099192E0,-1.253646165E-1
3.334138218E1,9.362732768E-1,-1.159839034E0,-9.447285533E-2
3.336126708E1,8.248898387E-1,-9.823445678E-1,-2.463351376E-2
3.338117900E1,6.676347852E-1,-6.519225836E-1,-2.623136342E-2
3.340108765E1,5.130428672E-1,-3.832841516E-1,-6.404713541E-2
3.342092833E1,3.584509194E-1,-1.983330697E-1,-4.700340703E-2
3.344082083E1,2.129800320E-1,4.660394625E-4,7.323476952E-3
3.346070822E1,8.455286920E-2,1.816888005E-1,1.318225823E-2
3.348060526E1,-2.103835158E-2,2.403431982E-1,-7.589785382E-3
3.350047906E1,-1.073888019E-1,2.013956159E-1,-1.078548469E-2
3.352039145E1,-1.547916681E-1,1.742321700E-1,-1.877473295E-2
3.354026312E1,-1.840855777E-1,1.497318149E-1,-4.220985994E-2
3.356018484E1,-2.123808414E-1,8.681648970E-2,-6.671021879E-2
3.358004822E1,-2.288919389E-1,2.822867595E-2,-6.990591437E-2
3.359994812E1,-2.480661422E-1,2.503297664E-2,-3.528584540E-2
3.361981932E1,-2.870137095E-1,1.054580659E-1,3.994623839E-4
3.363972541E1,-3.072531521E-1,2.355496585E-1,1.158440951E-2
3.365962859E1,-2.997965217E-1,3.112477660E-1,8.388710208E-3
3.367949989E1,-3.003291488E-1,2.963345051E-1,-1.198387123E-3
3.369941150E1,-3.285578191E-1,2.424736619E-1,-6.657706108E-4
3.371930317E1,-3.535907865E-1,2.008630037E-1,-9.187635034E-3
3.373916718E1,-3.573191166E-1,1.752974093E-1,-3.528584540E-2
3.375910947E1,-3.461341560E-1,1.177748293E-1,-4.540555924E-2
3.377895432E1,-3.322861195E-1,3.035914153E-2,-4.380770773E-2
3.379884161E1,-3.109814525E-1,1.058575325E-2,-3.422060981E-2
3.381875088E1,-2.966008186E-1,8.894696087E-2,-1.291595027E-2
3.383863953E1,-2.960681915E-1,1.736995578E-1,1.051917579E-2
3.385854255E1,-2.757622004E-1,1.635798514E-1,1.750976779E-2
3.387842666E1,-2.027937323E-1,6.338136643E-2,4.660394508E-3
3.389830010E1,-1.148454323E-1,-5.492607877E-2,-2.263620263E-3
3.391818374E1,-6.364767253E-2,-1.141130850E-1,-6.524552125E-3
3.393807526E1,-4.766917601E-2,-1.093195379E-1,-1.344856713E-2
3.395798838E1,-1.944050193E-2,-7.789516449E-2,-3.049229458E-2
3.397787249E1,3.175725788E-2,-4.427374899E-2,-4.753602296E-2
3.399775124E1,6.211639941E-2,-1.444722246E-2,-7.256899774E-2
3.401764979E1,6.158378348E-2,-1.071890723E-2,-1.109839678E-1
3.403753588E1,6.690994650E-2,-6.398055702E-2,-1.498649716E-1
3.405742343E1,1.127815470E-1,-1.434070021E-1,-1.872147024E-1
3.407730958E1,1.756303012E-1,-1.908764392E-1,-2.207695395E-1
3.409723541E1,1.922079772E-1,-1.727674752E-1,-2.383458912E-1
3.411710932E1,1.703041345E-1,-9.334104508E-2,-2.452699095E-1
3.413702619E1,1.511299312E-1,-3.262276063E-3,-2.489982247E-1
3.415688593E1,1.564560980E-1,2.876129188E-2,-2.687716186E-1
3.417676916E1,1.649779677E-1,-9.653674439E-3,-2.783586979E-1
3.419668078E1,1.340862066E-1,-4.427374899E-2,-2.585853040E-1
3.421656062E1,8.402025700E-2,1.970681176E-2,-2.229000032E-1
3.423642697E1,5.412715301E-2,1.859497428E-1,-1.840189993E-1
3.425633130E1,6.584471464E-2,3.719660640E-1,-1.530606747E-1
3.427620328E1,1.058575287E-1,5.286884904E-1,-1.227015257E-1
3.429609416E1,1.186403260E-1,6.715628505E-1,-8.541837335E-2
3.431602937E1,6.637733430E-2,8.671662807E-1,-1.930734888E-2
3.433588499E1,-4.500609636E-2,1.176283598E0,7.023879886E-2
3.435579015E1,-1.926074475E-1,1.552044511E0,1.219691783E-1
3.437566900E1,-3.290904164E-1,1.810563207E0,1.390129030E-1
3.439556374E1,-3.829512596E-1,1.818019867E0,1.986659616E-1
3.441546244E1,-4.063864052E-1,1.658634424E0,2.983984053E-1
3.443535661E1,-5.055196285E-1,1.471552849E0,3.798887134E-1
3.445522468E1,-6.840793490E-1,1.393191695E0,3.458012640E-1
3.447513333E1,-8.748891950E-1,1.557370663E0,1.667089611E-1
3.449506093E1,-1.211702585E0,1.917153120E0,-6.617759913E-2
3.451490874E1,-1.863625169E0,2.035460472E0,-2.948698103E-1
3.453479583E1,-2.860283852E0,1.392659068E0,-6.381411552E-1
3.455467057E1,-3.718994856E0,-4.952002168E-1,-1.054381013E0
3.457456270E1,-3.787702322E0,-3.333979607E0,-1.366693974E0
3.459446531E1,-2.869870901E0,-5.568838596E0,-2.162489653E0
3.461433197E1,-1.222421527E0,-6.346458435E0,-3.831310272E0
3.463422317E1,5.945997834E-1,-6.596455574E0,-5.911643982E0
3.465412062E1,1.701110601E0,-7.487123489E0,-7.719543934E0
3.467405171E1,1.384536624E0,-9.131909370E0,-9.331375122E0
3.469390291E1,-3.583843410E-1,-1.068721676E1,-1.060838890E1
3.471380562E1,-2.786250114E0,-1.047669983E1,-1.091704082E1
3.473369697E1,-4.249813557E0,-7.020218372E0,-1.123840809E1
3.475356380E1,-3.059082985E0,-1.767487884E0,-9.488563538E0
3.477345635E1,-6.110442877E-1,2.299305439E0,-3.253554583E0
3.479333817E1,-2.603163123E-1,4.225579739E0,4.495216846E0
3.481326604E1,-8.525193334E-1,5.828289509E0,7.841912746E0
3.483316067E1,-7.714950442E-1,7.615484238E0,6.333010197E0
3.485308093E1,-4.106473327E-1,7.133599281E0,5.030895710E0
3.487291583E1,-2.741643488E-1,4.294886589E0,5.999325752E0
3.489281869E1,-2.416747361E-1,2.411221504E0,6.465698242E0
3.491273265E1,-4.244953692E-1,2.531193495E0,5.822896481E0
3.493257906E1,-7.053840160E-1,3.451687813E0,5.112452507E0
3.495247098E1,-8.999221921E-1,4.183503151E0,4.820845127E0
3.497240109E1,-9.116397500E-1,4.678636551E0,4.642817974E0
3.499227192E1,-7.384062409E-1,4.970177650E0,4.232437134E0
3.501216755E1,-4.969977736E-1,4.912055969E0,3.702084303E0
3.503204739E1,-3.402753770E-1,4.428107262E0,3.188841581E0
3.505193859E1,-2.443378270E-1,3.555614710E0,2.725665092E0
3.507180598E1,-7.536523789E-2,2.618076563E0,2.357360601E0
3.509173994E1,3.708342463E-2,1.843052864E0,1.993849874E0
3.511159348E1,1.844184659E-2,1.006245732E0,1.571152091E0
3.513150640E1,-3.435376659E-2,-2.456693724E-2,1.194325924E0
3.515136515E1,4.667052254E-2,-9.727574587E-1,9.678307772E-1
3.517126739E1,2.924064696E-1,-1.623015642E0,8.350760937E-1
3.519119526E1,5.578492284E-1,-1.991852641E0,7.220948339E-1
3.521110432E1,7.688984871E-1,-2.094181538E0,5.846132040E-1
3.523097900E1,8.259550333E-1,-2.000374556E0,4.316191077E-1
3.525085369E1,8.291507363E-1,-1.802640557E0,2.248307467E-1
3.527073979E1,9.469255805E-1,-1.675811291E0,4.660394508E-3
3.529062276E1,1.110039353E0,-1.785596848E0,-1.141796634E-1
3.531049182E1,1.170225024E0,-2.007831097E0,-2.287587970E-1
3.533038567E1,1.125485301E0,-1.999841809E0,-3.502619267E-1
3.535029104E1,9.996545911E-1,-1.721083641E0,-3.507945538E-1
3.537017802E1,8.632382154E-1,-1.421553493E0,-2.181064636E-1
3.539009411E1,7.321479917E-1,-1.188666940E0,-7.256899774E-2
3.540996604E1,6.031216383E-1,-1.009574652E0,4.680367559E-2
3.542984926E1,4.213662446E-1,-7.590451241E-1,6.171693653E-2
3.544975963E1,2.204366624E-1,-5.111786723E-1,6.384740770E-2
3.546963843E1,7.436657697E-2,-4.461994767E-1,1.597849578E-1
3.548952083E1,-1.038602181E-2,-5.244941115E-1,2.290916741E-1
3.550940093E1,-6.045197323E-2,-6.076488495E-1,1.832200736E-1
3.552931505E1,-1.025952548E-1,-6.214969158E-1,1.209039465E-1
3.554917229E1,-1.318891644E-1,-5.724961758E-1,1.358172148E-1
3.556909718E1,-1.729006320E-1,-4.328174889E-1,1.539261788E-1
3.558899020E1,-2.102503628E-1,-2.713681161E-1,1.864157766E-1
3.560887817E1,-2.432725877E-1,-1.135804728E-1,2.040587068E-1
3.562875651E1,-2.400768995E-1,1.531272428E-3,1.837527007E-1
3.564865984E1,-2.294245660E-1,4.101147130E-2,1.443390697E-1
3.566851572E1,-2.464682907E-1,-2.829525247E-2,1.123820841E-1
3.568841489E1,-2.592510879E-1,-1.295589656E-1,1.032610238E-1
3.570831109E1,-2.491313666E-1,-1.311568171E-1,1.069893390E-1
3.572820812E1,-2.704360485E-1,-5.119776353E-2,9.154346585E-2
3.574808197E1,-3.061879277E-1,5.432688445E-2,8.248898387E-2
3.576801333E1,-3.104488552E-1,1.380142570E-1,8.408683538E-2
3.578785958E1,-3.168402612E-1,1.609167606E-1,7.716281712E-2
3.580778395E1,-3.242968917E-1,1.102516204E-1,1.097190008E-1
3.582766411E1,-3.157750070E-1,3.941362351E-2,1.358172148E-1
3.584756140E1,-2.923398912E-1,-3.262276063E-3,9.740224481E-2
3.586740973E1,-2.459356785E-1,2.023942769E-2,5.212984234E-2
3.588731239E1,-2.139786780E-1,8.202294260E-2,1.857500151E-2
3.590725166E1,-1.819551140E-1,1.086537689E-1,1.158440951E-2
3.592712911E1,-1.366827190E-1,8.468602598E-2,-8.122402243E-3
3.594704291E1,-1.084540337E-1,4.101147130E-2,-5.019910634E-2
3.596689697E1,-8.814803511E-2,2.663082629E-2,-9.340762347E-2
3.598679135E1,-5.565842614E-2,6.817491353E-2,-1.258972287E-1
3.600669182E1,-9.320789017E-3,8.788172156E-2,-1.546585262E-1
3.602655781E1,2.110492997E-2,4.846810177E-2,-1.914756298E-1
3.604642968E1,3.655080870E-2,-2.190385386E-2,-2.463351339E-1
3.606631937E1,5.732285231E-2,-8.055824786E-2,-3.252289593E-1
3.608621057E1,7.436657697E-2,-1.221023351E-1,-4.041227698E-1
3.610611874E1,7.756228000E-2,-1.428743750E-1,-4.792882800E-1
3.612604953E1,7.436657697E-2,-1.529940963E-1,-5.624430180E-1
3.614590453E1,6.584471464E-2,-1.866155118E-1,-6.674350500E-1
3.616580098E1,5.679023638E-2,-2.228334397E-1,-7.617747784E-1
3.618569369E1,2.749632671E-2,-2.430728674E-1,-8.172334433E-1
3.620554687E1,-3.062544949E-2,-2.313552946E-1,-8.694298863E-1
3.622544093E1,-9.933298081E-2,-2.361488491E-1,-8.864735961E-1
3.624533885E1,-1.563895196E-1,-2.414750159E-1,-8.747560382E-1
3.626526624E1,-1.782267988E-1,-2.105832547E-1,-8.353424072E-1
3.628516005E1,-1.824877262E-1,-1.577876359E-1,-7.655031085E-1
3.630507114E1,-2.406095117E-1,-9.067796171E-2,-6.583805680E-1
3.632491708E1,-3.157750070E-1,-3.468665108E-2,-5.027233958E-1
3.634481854E1,-3.589169383E-1,3.035914153E-2,-3.289572597E-1
3.636470749E1,-3.732976019E-1,1.784931123E-1,-1.567889899E-1
3.638457432E1,-3.610474169E-1,4.828834534E-1,2.869471535E-2
3.640446864E1,-3.360144496E-1,9.726908803E-1,2.035260797E-1
3.642434838E1,-3.802881837E-1,1.532337666E0,3.149095178E-1
3.644423494E1,-4.730300307E-1,2.025340796E0,3.756277859E-1
3.646413406E1,-4.991282523E-1,2.506093740E0,3.874119222E-1
3.648407874E1,-5.151067376E-1,3.105753422E0,2.780923843E-1
3.650390640E1,-7.016556859E-1,3.766664028E0,-2.729659714E-2
3.652379541E1,-1.275683165E0,3.779979467E0,-3.374791443E-1
3.654368541E1,-2.422206640E0,2.094115019E0,-5.064517260E-1
3.656359119E1,-3.780245781E0,-1.104979515E0,-5.352129936E-1
3.658349984E1,-4.406536102E0,-4.259267807E0,-5.768237114E-1
3.660335145E1,-3.615001440E0,-5.625828266E0,-1.529807806E0
3.662324072E1,-1.768752813E0,-5.411050797E0,-3.916595459E0
3.664316317E1,1.330209672E-1,-5.844933510E0,-6.654644012E0
3.666308015E1,1.309371114E0,-7.920406818E0,-9.111204147E0
3.668294692E1,1.430874228E0,-1.063874817E1,-1.122509289E1
3.670282479E1,-3.163076341E-1,-1.217321682E1,-1.287686920E1
3.672270072E1,-2.774466038E0,-1.065579224E1,-1.351594257E1
3.674260911E1,-3.077258587E0,-4.903134346E0,-1.160990810E1
3.676247833E1,-4.975304008E-1,1.172022581E0,-4.576440811E0
3.678236562E1,-8.015878499E-2,3.415403366E0,6.333010197E0
3.680228234E1,2.007298470E-1,6.674150944E0,1.180957317E1
3.682216437E1,7.870074511E-1,1.040359879E1,9.525646210E0
3.684205635E1,6.158378348E-2,1.008855534E1,6.516363144E0
3.686194427E1,-7.741581202E-1,5.478094101E0,6.438002110E0
3.688185473E1,-8.204957247E-1,1.489129186E0,6.411903858E0
3.690173963E1,-3.770259023E-1,3.416069150E-1,5.306991100E0
3.692162104E1,1.874144375E-1,6.576482654E-1,4.159401894E0
3.694151624E1,6.878741980E-1,1.250916481E0,3.205352783E0
3.696139052E1,1.044461012E0,1.741789103E0,2.517811298E0
3.698127937E1,1.269890904E0,2.037058353E0,2.032198191E0
3.700118093E1,1.482604623E0,2.121810913E0,1.723080993E0
3.702111989E1,1.649380207E0,2.024275541E0,1.553043127E0
3.704094848E1,1.673947096E0,1.808965445E0,1.284404755E0
3.706084239E1,1.532137990E0,1.520620108E0,8.174997568E-1
3.708072140E1,1.410102248E0,1.087802649E0,3.388772607E-1
3.710066140E1,1.489528656E0,4.924705327E-1,1.697715186E-2
3.712051104E1,1.795450211E0,-2.175072730E-1,-1.621151567E-1
3.714042661E1,2.055034161E0,-8.523195982E-1,-3.193701804E-1
3.716030015E1,2.024075985E0,-1.298985124E0,-4.222317338E-1
3.718018994E1,1.781602263E0,-1.561764717E0,-4.041227698E-1
3.720009390E1,1.547051191E0,-1.541991353E0,-4.264926612E-1
3.721998041E1,1.434069991E0,-1.338398695E0,-4.942015409E-1
3.723986494E1,1.353578329E0,-1.043662071E0,-4.856796861E-1
3.725977098E1,1.243792653E0,-7.467949390E-1,-4.174381793E-1
3.727964630E1,1.113767743E0,-5.794202089E-1,-3.417400718E-1
3.729952833E1,9.629040956E-1,-4.248282313E-1,-2.639780641E-1
3.731943994E1,8.024533391E-1,-2.953358591E-1,-1.605173051E-1
3.733931317E1,6.820154190E-1,-2.745638192E-1,-4.926702939E-3
3.735920781E1,5.669037104E-1,-1.625811905E-1,1.080545783E-1
3.737912124E1,3.973985016E-1,1.022623703E-1,1.688394397E-1
3.739901572E1,2.470674813E-1,3.384112120E-1,1.858831644E-1
3.741885583E1,1.479342431E-1,3.442699909E-1,2.370809317E-1
3.743875426E1,3.601819277E-2,2.073209733E-1,2.551898956E-1
3.745865869E1,-9.666989744E-2,7.722939551E-2,2.615812719E-1
3.747853208E1,-1.958697289E-1,8.841434121E-2,3.058550358E-1
3.749843161E1,-2.757622004E-1,3.213675022E-1,3.170399666E-1
3.751831937E1,-3.679714203E-1,6.608439088E-1,3.591166735E-1
3.753820958E1,-4.612458944E-1,9.081777334E-1,4.167058468E-1
3.755809593E1,-5.817503929E-1,9.166995883E-1,4.502606690E-1
3.757801906E1,-6.835467219E-1,8.138380051E-1,4.657065570E-1
3.759788822E1,-7.091122866E-1,7.434660792E-1,4.673044086E-1
3.761777567E1,-6.941990256E-1,7.152373791E-1,4.817516208E-1
3.763766171E1,-6.814162731E-1,7.920007706E-1,4.870778024E-1
3.765754973E1,-7.160363197E-1,9.411999583E-1,4.438692927E-1
3.767743041E1,-7.405366898E-1,1.025952578E0,3.782908916E-1
3.769732661E1,-7.171015739E-1,9.918650985E-1,3.516600430E-1
3.771723661E1,-7.064492106E-1,9.188300371E-1,3.202356696E-1
3.773711249E1,-7.021883130E-1,9.039167762E-1,2.876794934E-1
3.775701203E1,-7.112427950E-1,9.588428736E-1,2.647769749E-1
3.777689119E1,-7.272212505E-1,1.013169765E0,2.530594170E-1
3.779679661E1,-7.341452837E-1,1.002517462E0,2.461353987E-1
3.781666739E1,-7.016556859E-1,9.198952913E-1,2.599834204E-1
3.783654937E1,-6.670355797E-1,8.335448503E-1,3.063876629E-1
3.785643749E1,-6.254249215E-1,7.909355164E-1,3.399424851E-1
3.787633140E1,-5.647066832E-1,7.088459730E-1,3.479317427E-1
3.789622687E1,-4.831497669E-1,5.862776041E-1,3.537905216E-1
3.791611140E1,-3.615800440E-1,5.057859421E-1,3.553883731E-1
3.793603531E1,-2.310224175E-1,4.636426866E-1,3.346163332E-1
3.795589786E1,-1.121823564E-1,3.986634612E-1,2.952027023E-1
3.797581515E1,-4.993279930E-3,2.930722237E-1,2.109827101E-1
3.799571036E1,9.573781490E-2,1.428077966E-1,9.580439329E-2
3.801557900E1,1.980667710E-1,2.596505452E-3,1.158440951E-2
3.803545458E1,2.689713240E-1,-7.736254483E-2,-6.830807030E-2
3.805536343E1,3.163742125E-1,-1.194392517E-1,-1.691057384E-1
3.807525630E1,3.670393527E-1,-1.727674752E-1,-2.767608464E-1
3.809519374E1,4.101812840E-1,-2.223008126E-1,-3.513271809E-1
3.811508520E1,4.373447299E-1,-2.563882768E-1,-4.094489515E-1
3.813493479E1,4.458665848E-1,-2.633788586E-1,-4.984624684E-1
3.815480270E1,4.378773570E-1,-2.185724974E-1,-6.354780793E-1
3.817472020E1,3.872787952E-1,-4.320851341E-2,-8.907345533E-1
3.819459442E1,3.238308430E-1,3.101825416E-1,-1.163633943E0
3.821449213E1,2.140452564E-1,7.429334521E-1,-1.453577042E0
3.823435885E1,1.436733007E-1,1.114966035E0,-1.754771709E0
3.825427515E1,1.820882708E-1,1.098454952E0,-2.058562756E0
3.827417119E1,3.312874734E-1,5.718303919E-1,-2.250970602E0
3.829409572E1,4.965317547E-1,-4.480636492E-2,-2.366614819E0
3.831393822E1,5.541208982E-1,-3.294233084E-1,-2.392779589E0
3.833384005E1,4.928034246E-1,-3.427387178E-1,-2.300037861E0
3.835372427E1,4.197683930E-1,-3.534576297E-1,-2.083063126E0
3.837360468E1,3.323526978E-1,-3.854146302E-1,-1.751043320E0
3.839350411E1,1.740324497E-1,-4.301544130E-1,-1.417891741E0
3.841339999E1,-5.033225939E-2,-4.808195531E-1,-9.925308824E-1
3.843327749E1,-3.184380829E-1,-3.944691122E-1,-4.355471432E-1
3.845319911E1,-5.529224873E-1,-1.295589656E-1,2.120479494E-1
3.847308359E1,-7.064492106E-1,2.930722237E-1,9.342093468E-1
3.849295036E1,-8.316806555E-1,8.101097345E-1,1.614893317E0
3.851282541E1,-9.452611804E-1,1.067030549E0,2.268879652E0
3.853272473E1,-9.516525269E-1,7.557162642E-1,2.969203949E0
3.855261541E1,-9.372718930E-1,-4.374112934E-2,3.485176086E0
3.857253046E1,-1.065166473E0,-8.773525357E-1,3.506480694E0
3.859240635E1,-1.393990517E0,-1.399183631E0,2.887181044E0
3.861229015E1,-1.952638745E0,-1.861294985E0,1.899510264E0
3.863217781E1,-2.353965282E0,-2.503031254E0,9.720917344E-1
3.865208900E1,-2.318213463E0,-2.986979961E0,-1.131810062E-2
3.867195093E1,-1.786329150E0,-3.353153944E0,-1.776076317E0
3.869185843E1,-8.509214520E-1,-4.452740669E0,-4.308334827E0
3.871175421E1,1.750976741E-1,-6.773950100E0,-6.739929199E0
3.873163265E1,6.143065691E-1,-9.711330414E0,-9.109073639E0
3.875153062E1,-5.502594113E-1,-1.228460026E1,-1.097882462E1
3.877140322E1,-2.901361942E0,-1.322593307E1,-1.151929665E1
3.879131026E1,-4.745013714E0,-1.114506721E1,-1.128268147E1
3.881122458E1,-2.673202276E0,-6.594325066E0,-8.573394775E0
3.883110265E1,1.681936383E0,-1.279611140E-1,-2.433258533E0
3.885102302E1,2.860416889E0,4.704734802E0,4.572512627E0
3.887086979E1,1.293925285E0,7.051576138E0,8.756547928E0
3.889076880E1,-1.260303855E-1,8.917065620E0,8.690969467E0
3.891062536E1,-1.092862487E0,9.316261292E0,7.660157204E0
3.893051723E1,-1.295922518E0,8.515139580E0,7.293983459E0
3.895042682E1,-9.692289233E-1,7.846772671E0,6.496123791E0
3.897031843E1,-4.644415975E-1,7.230602264E0,5.190214634E0
3.899018468E1,2.193714231E-1,5.987142086E0,4.079975605E0
3.901008072E1,1.204911709E0,4.218655586E0,3.589102983E0
3.902998786E1,2.102437019E0,2.918139219E0,3.162743330E0
3.904987520E1,2.711683750E0,2.323273182E0,2.383458853E0
3.906978453E1,2.910482883E0,1.796182632E0,1.635665298E0
3.908966244E1,2.625333309E0,1.034474373E0,1.196456432E0
3.910955135E1,2.194646358E0,3.378785849E-1,1.119693041E0
3.912944130E1,2.021945477E0,1.006645188E-1,1.175684333E0
3.914930869E1,1.951107383E0,2.696371078E-1,1.060039997E0
3.916919906E1,1.723480463E0,3.405416906E-1,8.788172603E-1
3.918913291E1,1.328545332E0,2.659088075E-1,7.497909069E-1
3.920902885E1,9.607735872E-1,4.047885537E-2,6.458640695E-1
3.922890494E1,8.163014054E-1,-5.239614844E-1,6.677679420E-1
3.924876447E1,8.765535951E-1,-1.084673524E0,7.146382332E-1
3.926867536E1,7.955293655E-1,-1.283006549E0,5.350132585E-1
3.928855380E1,5.823495984E-1,-1.294191599E0,3.207682967E-1
3.930844588E1,4.389425814E-1,-1.366627336E0,2.040587068E-1
3.932832848E1,4.672378302E-1,-1.517490983E0,1.576544940E-1
3.934822885E1,5.103797913E-1,-1.482870936E0,1.166430190E-1
3.936811749E1,4.864120185E-1,-1.084140897E0,4.573844373E-2
3.938802286E1,4.592485726E-1,-5.165048838E-1,3.242303059E-2
3.940791869E1,4.442687333E-1,-4.693682864E-2,1.000653282E-1
3.942776989E1,4.080508351E-1,1.848845035E-1,1.129147038E-1
3.944771078E1,3.755612075E-1,1.747647971E-1,6.278216839E-2
3.946755364E1,3.419398069E-1,8.575125784E-2,-5.459319334E-3
3.948746703E1,2.454696298E-1,2.596505452E-3,-5.499265343E-2
3.950733947E1,7.649704814E-2,-2.137123793E-2,-4.700340703E-2
3.952726645E1,-8.069140464E-2,6.338136643E-2,-2.995967865E-2
3.954713083E1,-2.033263594E-1,1.859497428E-1,3.994623839E-4
3.956706697E1,-3.173728585E-1,2.509955168E-1,5.319507420E-2
3.958691015E1,-4.255605936E-1,2.227668613E-1,8.994561434E-2
3.960681088E1,-4.890085459E-1,1.342859417E-1,1.145125479E-1
3.962668968E1,-5.193676949E-1,1.300249994E-1,1.304910481E-1
3.964658442E1,-5.491942167E-1,2.712349594E-1,1.448716968E-1
3.966646499E1,-6.003919840E-1,3.852814734E-1,1.853505522E-1
3.968637984E1,-6.515231729E-1,3.890763521E-1,1.970681101E-1
3.970622822E1,-6.563166976E-1,3.288241327E-1,1.608501822E-1
3.972615911E1,-6.259575486E-1,2.477998286E-1,1.448716968E-1
3.974603005E1,-6.270228028E-1,1.630472243E-1,1.320888996E-1
3.976593411E1,-6.440665126E-1,5.698996782E-2,1.326215118E-1
3.978583020E1,-6.216966510E-1,-1.071890723E-2,1.912093312E-1
3.980571734E1,-5.876091719E-1,7.456631213E-2,2.232328951E-1
3.982558661E1,-5.555856228E-1,2.073209733E-1,1.960028708E-1
3.984549208E1,-5.156393647E-1,2.435389012E-1,1.336867511E-1
3.986538385E1,-4.591154456E-1,1.257640719E-1,1.069893390E-1
3.988526166E1,-4.223648906E-1,-1.045259908E-1,1.145125479E-1
3.990518770E1,-4.127778113E-1,-2.852161527E-1,1.347519755E-1
3.992509864E1,-4.010602236E-1,-2.286922187E-1,1.768286824E-1
3.994493739E1,-3.829512596E-1,7.616416365E-2,1.896114796E-1
3.996483973E1,-3.797555864E-1,3.954677582E-1,1.954702586E-1
3.998472807E1,-3.770259023E-1,5.793536305E-1,1.976007223E-1
