"Time (s)","Linear Acceleration x (m/s^2)","Linear Acceleration y (m/s^2)","Linear Acceleration z (m/s^2)"
6.523173500E-2,1.683049679E0,-1.668346405E0,-1.432389736E0
8.510251600E-2,1.408962727E0,-8.332805634E-1,-1.033995390E0
1.050200680E-1,5.555438995E-1,8.410215378E-2,-6.275243759E-1
1.248942350E-1,-3.778982162E-1,1.033286572E0,-1.233794689E-1
1.447884020E-1,-7.914638519E-1,1.543793201E0,3.664345741E-1
1.646815270E-1,-5.710949898E-1,1.595900536E0,7.630963326E-1
1.845552770E-1,4.320430756E-2,1.310588837E0,7.236413956E-1
2.044605890E-1,8.012814522E-1,7.927041054E-1,1.622796059E-1
2.243578290E-1,1.522655487E0,7.933712006E-2,-4.877550602E-1
2.442401730E-1,2.016330481E0,-5.904450417E-1,-1.069701910E0
2.641184020E-1,1.970019341E0,-7.404756546E-1,-1.398511767E0
2.840518910E-1,1.538866520E0,-2.532386780E-1,-1.482784152E0
3.039143390E-1,8.563446999E-1,1.976089478E-1,-1.374043703E0
3.237748080E-1,2.400717735E-1,4.760074615E-1,-9.358422756E-1
3.436857460E-1,-1.978626251E-1,3.656902313E-1,-5.241549015E-1
3.635508500E-1,-3.296566010E-1,2.931203842E-1,-4.288673401E-2
3.835015270E-1,-1.123647690E-1,4.923405647E-1,5.081627369E-1
4.033548600E-1,1.673531532E-1,8.040084839E-1,4.851841927E-1
4.232611620E-1,7.266378403E-2,1.299417496E0,2.526438236E-1
4.431621000E-1,-1.814703941E-1,1.452277660E0,1.911232471E-1
4.630654850E-1,-1.039056778E-1,1.091681480E0,1.337242126E-1
4.829985580E-1,2.597808838E-1,5.903506279E-1,-1.795635223E-1
5.027957460E-1,4.113626480E-1,3.939814568E-1,-3.108510971E-1
5.227039750E-1,5.454745293E-1,3.073062897E-1,-3.123910427E-1
5.425838180E-1,8.245916367E-1,2.314534187E-1,-5.051717758E-1
5.624885060E-1,1.070128918E0,1.523399353E-2,-4.884936810E-1
5.823457460E-1,1.158344746E0,-1.961483955E-1,-2.742238045E-1
6.022493390E-1,1.299675941E0,-3.141312599E-1,-2.749037743E-2
6.221690790E-1,1.483926773E0,-2.309932709E-1,2.106783390E-1
6.420565790E-1,1.575983047E0,2.179012299E-1,1.452293396E-1
6.619412140E-1,1.364488602E0,8.011841774E-1,1.408305168E-1
6.817973080E-1,1.032411575E0,1.581904411E0,7.104675770E-1
7.016942870E-1,8.957810402E-1,2.209229946E0,1.285511732E0
7.215974120E-1,8.005743027E-1,2.768053532E0,2.122236490E0
7.414966830E-1,1.036775589E0,4.805584431E0,3.738991022E0
7.613791830E-1,1.516400337E0,6.969351768E0,5.002364635E0
7.812580890E-1,1.837978363E0,7.923165798E0,5.815662384E0
8.011753290E-1,3.243712902E0,9.308183670E0,6.107914925E0
8.210838710E-1,5.365667820E0,1.108924675E1,4.616929054E0
8.409416310E-1,6.717332363E0,1.220763493E1,2.357841969E0
8.608120480E-1,7.045545578E0,1.262627983E1,-8.253765106E-2
8.807163710E-1,7.061232567E0,1.289940739E1,-2.539200306E0
9.006091830E-1,6.422440052E0,1.102031136E1,-4.970801353E0
9.204916310E-1,5.482875824E0,6.535912514E0,-6.363076687E0
9.403820480E-1,5.255529881E0,4.707510471E-1,-7.465831280E0
9.602689230E-1,6.609165192E0,-6.873058319E0,-9.268598557E0
9.801535060E-1,9.305717468E0,-1.466511631E1,-1.108653831E1
1.000065433E0,1.015949535E1,-2.895781708E1,-1.048547077E1
1.019961058E0,6.364830971E0,-4.564018631E1,-2.506573200E0
1.039818506E0,2.973577976E-1,-3.941560745E1,2.568191528E0
1.059721058E0,-1.156585217E0,-1.454731846E1,-3.748135567E0
1.079617673E0,3.916517735E0,-1.852713227E0,-3.950609207E0
1.099514183E0,8.480234146E0,-8.150663376E0,-6.938190460E-1
1.119384964E0,7.275114059E0,-1.461822701E1,-7.733821869E-1
1.139275381E0,3.723637581E0,-1.259583187E1,-6.742391586E-1
1.159182725E0,1.905368209E0,-9.880918503E0,1.130245209E0
1.179074808E0,6.469163895E-1,-8.918803215E0,1.092397690E0
1.198966839E0,-1.505143166E0,-9.768287659E0,-6.533317566E-1
1.218831214E0,-3.250058651E0,-1.024392986E1,-1.823160172E0
1.238721787E0,-1.530451298E0,-6.611660004E0,-1.568104744E0
1.258624600E0,-6.077342033E-1,-2.323818684E0,-3.188819885E-1
1.278515589E0,1.665401459E-1,-1.292803288E-1,-3.926744461E-1
1.298394808E0,1.956662655E0,1.120671511E0,-1.948929310E0
1.318289131E0,3.236509323E0,3.645603180E0,-3.435562134E0
1.338175225E0,2.052471638E0,7.058273315E0,-2.010429144E0
1.358081891E0,7.417154312E-1,9.048259735E0,-3.208818436E-1
1.377979079E0,1.255299568E0,7.550025463E0,-8.118722439E-1
1.397833818E0,1.129195690E0,7.123446465E0,-2.299540043E-1
1.417748923E0,1.789379120E-1,9.544469833E0,9.477713108E-1
1.437628871E0,4.763879776E-1,9.936389923E0,1.385598421E0
1.457528350E0,7.547903061E-1,7.883069038E0,1.909897804E0
1.477398871E0,1.076893330E0,6.136187077E0,2.726340532E0
1.497290693E0,1.873307228E0,4.876749039E0,2.900759697E0
1.517220746E0,2.654912949E0,4.346430779E0,1.940885782E0
1.537107516E0,3.228087425E0,3.290093422E0,9.964142442E-1
1.556942204E0,3.253176689E0,2.332343578E0,9.895488620E-1
1.576855902E0,2.800683022E0,1.913835049E0,1.298338175E0
1.596740068E0,2.386752605E0,1.582575798E0,1.101709366E0
1.616651162E0,2.065526009E0,1.074176788E0,8.988487720E-1
1.636541162E0,2.129286766E0,5.535917282E-1,1.183628917E0
1.656428714E0,2.278834820E0,2.833642960E-1,1.561889291E0
1.676295746E0,2.186396122E0,4.191260338E-1,1.476163268E0
1.696175277E0,1.956552982E0,1.086188316E0,7.618870735E-1
1.716079548E0,1.882156849E0,1.565832138E0,1.333261728E-1
1.735952985E0,1.879441738E0,1.605892181E0,-3.610181808E-2
1.755881996E0,1.874523640E0,1.632941246E0,-3.877127171E-2
1.775757048E0,1.740473747E0,1.645047665E0,-1.401652098E-1
1.795628089E0,1.646307945E0,1.722013474E0,5.908751488E-2
1.815539339E0,1.799824715E0,1.432464600E0,1.889826059E-1
1.835416371E0,1.843235016E0,1.224065304E0,1.909756660E-2
1.855302985E0,1.797152519E0,1.678853989E0,9.154677391E-3
1.875225641E0,1.789541245E0,1.910789967E0,-5.433750153E-2
1.895120693E0,1.429852009E0,1.533109188E0,3.488913774E-1
1.914992829E0,8.587322235E-1,1.150648117E0,6.111773252E-1
1.934863818E0,4.318337440E-1,8.534131050E-1,2.843786478E-1
1.954746318E0,1.667399406E-1,8.408575058E-1,-1.076468229E-1
1.974667621E0,-5.817413330E-5,6.816687584E-1,-2.095406055E-1
1.994550068E0,-2.443232536E-1,9.419488907E-2,-3.459068537E-1
2.014420016E0,-4.352669716E-1,-5.040283203E-1,-8.376159072E-1
2.034330016E0,-6.182494164E-1,-8.453183174E-1,-1.259862900E0
2.054219443E0,-7.075519562E-1,-1.126181126E0,-1.262132406E0
2.074110902E0,-7.832875252E-1,-1.568646908E0,-1.014381647E0
2.094027152E0,-6.382436752E-1,-1.855025768E0,-8.813323975E-1
2.113880589E0,-4.425272942E-1,-1.712669373E0,-9.563690424E-1
2.133753454E0,-5.715961456E-1,-1.597895145E0,-9.958997369E-1
2.153663193E0,-1.003990173E0,-1.591958046E0,-8.646626472E-1
2.173531423E0,-1.497643948E0,-1.615061283E0,-6.399646401E-1
2.193420225E0,-1.710480213E0,-1.507439137E0,-5.766131878E-1
2.213333350E0,-1.667366505E0,-1.195646763E0,-6.797527671E-1
2.233214912E0,-1.520154476E0,-7.680788040E-1,-5.981777310E-1
2.253129339E0,-1.331953049E0,-7.273254395E-1,-2.046366930E-1
2.272996006E0,-1.216180801E0,-9.155969620E-1,-1.328452826E-1
2.292878298E0,-1.169514656E0,-7.213492393E-1,-3.270196915E-2
2.312785121E0,-8.055830002E-1,-2.403450012E-1,2.731580734E-1
2.332669339E0,-1.972932816E-1,2.080340385E-1,3.280397654E-1
2.352534600E0,2.619547844E-1,4.148631096E-1,5.138132572E-1
2.372434860E0,5.468721390E-1,3.560986519E-1,7.395845652E-1
2.392332100E0,7.901167870E-1,3.197093010E-1,2.116585970E-1
2.412237516E0,1.121182919E0,7.090311050E-1,7.378065586E-2
2.432115173E0,1.399453163E0,1.020393848E0,4.849054813E-1
2.452044027E0,1.544714928E0,1.302118301E0,9.860212803E-1
2.471884548E0,1.615813732E0,2.098310471E0,1.623082042E0
2.491789079E0,2.051637173E0,3.129575729E0,2.875076532E0
2.511695225E0,2.778296471E0,4.459131241E0,4.968853951E0
2.531583141E0,3.619253874E0,7.052248955E0,7.267920017E0
2.551470746E0,5.996677399E0,1.166235924E1,1.022197819E1
2.571350381E0,1.057362556E1,1.783973694E1,1.265447617E1
2.591263037E0,1.491304588E1,2.440807152E1,1.210020733E1
2.611119860E0,1.520680237E1,2.603599167E1,8.623764038E0
2.631039600E0,1.224130058E1,2.096607590E1,2.996789455E0
2.650892881E0,6.905930519E0,1.194339752E1,-3.129949808E0
2.670804131E0,4.118537903E-2,6.729335785E-1,-8.318683624E0
2.690706683E0,-1.126644135E0,-1.227997971E1,-1.170004559E1
2.710574443E0,2.107427835E0,-2.800123024E1,-1.366766167E1
2.730467464E0,7.212386608E0,-4.842164230E1,-6.843904972E0
2.750360850E0,9.479924202E0,-4.219268036E1,3.381523132E0
2.770249287E0,6.305414200E0,-2.640402222E1,-9.101537704E0
2.790119235E0,-1.105737686E-1,-6.751851082E0,-8.153914452E0
2.810061266E0,5.444978714E0,-6.897269249E0,-7.351998329E0
2.829935850E0,8.778953552E0,-1.230166531E1,-8.344246864E0
2.849819443E0,7.114431381E0,-8.705584526E0,-6.514459610E0
2.869721266E0,3.537019730E0,-6.798979282E0,-3.205643177E0
2.889582673E0,4.922733307E-1,-9.436162949E0,-9.457206726E-2
2.909488714E0,1.852278709E-1,-1.166670227E1,1.301605225E0
2.929381996E0,1.092819691E0,-1.368133354E1,3.293485641E-1
2.949264131E0,6.118655205E-1,-1.172313595E1,-8.633279800E-1
2.969164652E0,5.198421478E-1,-7.028603554E0,-1.471600056E0
2.989053037E0,1.135329723E0,-4.080153942E0,-1.774967194E0
3.008943871E0,1.130865097E0,-1.588114738E0,-6.584057808E-1
3.028831735E0,1.086987019E0,2.011987925E0,-6.431441307E-1
3.048721214E0,1.255762100E0,4.291319370E0,-2.063469648E0
3.068587464E0,1.118210793E0,5.754930019E0,-1.517842531E0
3.088483193E0,7.112331390E-1,8.424078941E0,1.647655249E0
3.108385693E0,-4.986286163E-2,9.779638290E0,3.620433807E0
3.128268975E0,-7.039871216E-1,8.423320770E0,2.856057882E0
3.148155381E0,-3.228311539E-1,7.302773476E0,2.543718338E0
3.168063454E0,4.017395973E-1,7.212953568E0,3.725236893E0
3.187946214E0,1.237789631E0,6.716159344E0,4.026430130E0
3.207841475E0,1.911075115E0,5.212243557E0,2.579786062E0
3.227731110E0,2.507192612E0,3.792735100E0,1.196657658E0
3.247596110E0,3.085714340E0,3.002375126E0,8.217597604E-1
3.267496631E0,3.389808655E0,2.515717983E0,8.480187654E-1
3.287384131E0,3.431212425E0,2.044794083E0,9.622410536E-1
3.307282568E0,2.905743122E0,1.840735435E0,1.004775405E0
3.327201891E0,2.261651516E0,1.736928463E0,8.655023575E-1
3.347083766E0,2.140735149E0,1.787289619E0,9.061309695E-1
3.366944548E0,2.052341461E0,1.905195713E0,1.127901793E0
3.386850641E0,1.741049290E0,1.794831753E0,9.774842262E-1
3.406745121E0,1.667137146E0,1.766507626E0,6.246594787E-1
3.426594496E0,1.932777882E0,1.865620613E0,3.478439450E-1
3.446500589E0,2.135264874E0,1.739130497E0,3.220950365E-1
3.466406996E0,2.019793034E0,1.395233631E0,4.050460458E-1
3.486277777E0,1.420804977E0,1.163118839E0,3.541274071E-1
3.506179964E0,9.924912453E-1,1.114483833E0,-1.171857119E-2
3.526087985E0,8.687806129E-1,1.121017933E0,-1.768668294E-1
3.545942048E0,8.881535530E-1,8.940773010E-1,6.656217575E-2
3.565840277E0,6.882987022E-1,5.152573586E-1,1.129138470E-1
3.585719600E0,2.304182053E-1,2.163777351E-1,-7.458925247E-4
3.605634496E0,5.228805542E-2,-1.536035538E-2,-9.423840046E-2
3.625519131E0,7.096147537E-2,-2.400693893E-1,-1.609194875E-1
3.645405329E0,-9.984731674E-2,-5.005793571E-1,-1.564612389E-1
3.665284443E0,-3.208808899E-1,-5.147027969E-1,-2.949909568E-1
3.685187152E0,-5.251116753E-1,-3.627257347E-1,-7.369832397E-1
3.705086683E0,-5.238509178E-1,-2.844090462E-1,-9.150923491E-1
3.724978558E0,-5.628528595E-1,-3.988170624E-1,-8.082567453E-1
3.744848818E0,-8.096418381E-1,-7.211623192E-1,-6.367384195E-1
3.764763975E0,-9.890122414E-1,-7.039217949E-1,-4.562196732E-1
3.784647100E0,-9.735784531E-1,-5.948591232E-1,-4.825064242E-1
3.804522360E0,-8.915991783E-1,-5.751471519E-1,-4.030226469E-1
3.824405902E0,-7.938919067E-1,-6.042661667E-1,-1.689493060E-1
3.844282464E0,-5.981521606E-1,-4.946956635E-1,5.271422863E-2
3.864177308E0,-3.219318390E-1,-2.976565361E-1,1.311521530E-1
3.884110068E0,-2.263741493E-1,-1.136670113E-1,-1.338464022E-2
3.904005954E0,-2.654929161E-1,2.013301849E-2,-2.656733990E-1
3.923860641E0,-2.227830887E-1,-9.165287018E-2,-2.685119510E-1
3.943766371E0,-9.404850006E-2,-3.312301636E-1,-1.401426196E-1
3.963653037E0,-2.163362503E-2,-2.490615845E-1,-2.426493168E-2
3.983537829E0,-7.313728333E-3,-1.149702072E-2,4.131937027E-2
4.003431787E0,2.482757568E-1,-5.158424377E-3,-1.523937583E-1
4.023331162E0,5.382361412E-1,-4.476881027E-2,-1.355445385E-1
4.043233454E0,6.478490829E-1,1.585855484E-1,1.209651232E-1
4.063087516E0,7.426395416E-1,4.756636620E-1,2.104852200E-1
4.083055850E0,8.463783264E-1,6.225404739E-1,1.256155968E-1
4.102872464E0,1.011914730E0,6.784930229E-1,1.696329117E-1
4.122744808E0,1.255291939E0,6.583395004E-1,1.584229469E-1
4.142637881E0,1.635635376E0,9.116640091E-1,4.946100712E-2
4.162516214E0,2.147789001E0,1.285461903E0,-8.814358711E-2
4.182425693E0,2.574079275E0,1.634885788E0,9.780108929E-2
4.202287048E0,3.002345562E0,1.699961185E0,1.078540087E-1
4.222194287E0,3.321947098E0,2.077716351E0,1.285450459E-1
4.242080485E0,3.236674309E0,2.529148579E0,2.352154255E-1
4.261964548E0,2.809069157E0,2.686508656E0,2.412315607E-1
4.281897464E0,2.486797333E0,2.967853069E0,-3.032594919E-2
4.301749443E0,2.414379358E0,3.270203114E0,-3.245649338E-1
4.321661110E0,1.629220009E0,3.264321804E0,1.823729873E-1
4.341552725E0,7.790236473E-1,3.779021263E0,1.493429542E0
4.361444808E0,1.398810387E0,4.333392143E0,2.143349648E0
4.381330485E0,2.435520172E0,5.305193424E0,2.790815830E0
4.401248714E0,3.473193407E0,6.080544949E0,4.947745323E0
4.421111110E0,4.923812389E0,8.511718750E0,8.014028549E0
4.441040121E0,7.072620392E0,1.271258926E1,9.775056839E0
4.460911371E0,9.516461372E0,1.680204010E1,1.054110146E1
4.480780693E0,1.033035088E1,2.044869423E1,8.396739006E0
4.500677204E0,8.878559113E0,1.984336472E1,1.801785469E0
4.520560485E0,6.848997116E0,1.033513641E1,-3.684708595E0
4.540434131E0,6.080766201E0,-1.191037416E0,-7.077142239E0
4.560329600E0,7.202532768E0,-1.528297806E1,-1.044310570E1
4.580211839E0,7.950588703E0,-3.585155869E1,-9.661765099E0
4.600134496E0,8.103935242E0,-5.631885529E1,-5.751578331E0
4.620050746E0,4.952539444E0,-4.550765610E1,-2.510766983E-1
4.639904912E0,-5.832734108E0,-1.815822029E1,-4.900575161E0
4.659794131E0,-5.166958809E0,-2.010284424E0,-4.680325031E0
4.679672777E0,5.006095409E0,-9.749011040E0,-9.823598862E-1
4.699583350E0,7.119457245E0,-1.489875603E1,-2.764497757E0
4.719434287E0,8.176721573E0,-1.307263851E1,-4.585306644E0
4.739370121E0,5.982940197E0,-1.102674675E1,-2.039360046E0
4.759221527E0,3.708656311E0,-1.015113544E1,6.918144226E-2
4.779114808E0,1.468126297E0,-8.444608688E0,1.554636955E-1
4.799037881E0,-1.207713127E0,-7.353466988E0,4.191608429E-1
4.818931996E0,-1.712621689E0,-7.333910942E0,1.360342026E0
4.838802881E0,-1.094645977E0,-5.666690826E0,5.369834900E-1
4.858684183E0,-4.249739647E-1,-1.280477405E0,-1.354926586E0
4.878574183E0,2.604460716E-1,1.770967007E0,-1.961934805E0
4.898440277E0,8.226804733E-1,2.936678886E0,-4.515743256E-2
4.918359912E0,8.124475479E-1,4.001772881E0,1.822286844E0
4.938246631E0,1.468660831E0,5.869189739E0,1.173010111E0
4.958141058E0,2.191840649E0,6.769034386E0,5.617406368E-1
4.978056891E0,1.050790787E0,6.350401878E0,2.495413303E0
4.997932621E0,-3.974585533E-1,5.108367443E0,3.889913082E0
5.017817673E0,2.110395432E-1,5.189461231E0,3.636881351E0
5.037715121E0,1.899828911E0,5.478044987E0,2.257145882E0
5.057557725E0,3.353652239E0,4.750116348E0,1.584260583E0
5.077491006E0,2.732945442E0,3.658347130E0,2.135579586E0
5.097343610E0,2.144495487E0,2.699221134E0,1.935955524E0
5.117272725E0,2.346271515E0,2.393573284E0,9.470703602E-1
5.137161735E0,2.791955709E0,2.081694126E0,3.402200937E-1
5.157070173E0,2.805097342E0,1.603429317E0,4.506564140E-1
5.176920902E0,2.342864990E0,1.272679329E0,9.537439346E-1
5.196830225E0,1.985790253E0,1.099580288E0,9.212948084E-1
5.216727100E0,1.936903954E0,1.079946995E0,3.114140034E-1
5.236570329E0,2.057935715E0,1.032165527E0,1.164854765E-1
5.256502933E0,2.133890152E0,9.167642593E-1,3.198494911E-1
5.276379391E0,1.874118805E0,7.536425591E-1,5.850840807E-1
5.296257100E0,1.693427563E0,8.452944756E-1,6.447824240E-1
5.316158975E0,1.455554485E0,9.934997559E-1,3.024430275E-1
5.336067256E0,1.115983963E0,1.029578209E0,3.717534542E-1
5.355939287E0,6.893167496E-1,7.799935341E-1,4.208154678E-1
5.375830537E0,4.102053642E-1,6.549592018E-1,3.191217184E-1
5.395737829E0,3.539195061E-1,6.773138046E-1,4.116902351E-1
5.415587360E0,6.435804367E-1,6.422691345E-1,4.819831848E-1
5.435498871E0,6.545782089E-1,3.401536942E-1,2.864018679E-1
5.455396996E0,3.345274925E-1,8.568477631E-2,3.923726082E-2
5.475285277E0,1.781959534E-1,1.180605888E-1,-2.137732506E-1
5.495194235E0,1.510658264E-1,3.643164635E-1,-3.075363636E-1
5.515096996E0,2.211041451E-1,5.067443848E-1,-2.873482704E-1
5.534949548E0,3.886837959E-1,4.455494881E-1,-4.205830097E-1
5.554850746E0,4.757275581E-1,2.933335304E-1,-3.632558584E-1
5.574735173E0,4.549489021E-1,2.320623398E-1,-1.944857836E-1
5.594620068E0,3.480134010E-1,3.595504761E-1,-4.228222370E-2
5.614516371E0,1.865959167E-1,4.142522812E-1,2.218532562E-2
5.634374756E0,-6.312322617E-2,2.659268379E-1,1.500706673E-1
5.654297516E0,-2.574105263E-1,2.572631836E-2,1.703765392E-1
5.674188298E0,-1.328344345E-1,-9.445810318E-2,1.332390308E-2
5.694059548E0,2.258443832E-2,-5.777120590E-2,-5.250811577E-2
5.713958871E0,4.105234146E-2,3.206634521E-2,4.952919483E-2
5.733856579E0,-9.702444077E-2,-1.026382446E-1,8.666718006E-2
5.753728818E0,-3.627510071E-1,-2.706003189E-1,1.302323341E-1
5.773627829E0,-4.307923317E-1,-1.976256371E-1,1.271083355E-1
5.793522048E0,-1.832408905E-1,-1.206164360E-1,-4.405260086E-2
5.813397985E0,4.742956161E-2,-9.484434128E-2,-1.278933287E-1
5.833302985E0,9.214544296E-2,-1.462759972E-1,3.099989891E-2
5.853209600E0,-8.822441101E-3,-2.708234787E-1,2.682089806E-2
5.873122464E0,-1.867017746E-1,-1.562104225E-1,-1.143107414E-1
5.892975798E0,-1.215686798E-1,6.143856049E-2,-1.397216320E-1
5.912872673E0,1.515130997E-1,5.738925934E-2,-1.203653812E-1
5.932756162E0,2.933292389E-1,-1.830391884E-1,-3.038930893E-2
5.952617673E0,2.649650574E-1,-3.130674362E-1,-1.539325714E-2
5.972531683E0,2.700457573E-1,-3.147835732E-1,-1.942293644E-1
5.992426214E0,3.843131065E-1,-2.116765976E-1,-1.364585161E-1
6.012319704E0,3.275961876E-1,-3.251614571E-1,7.141637802E-2
6.032186371E0,2.541747093E-1,-2.607145309E-1,2.109293938E-1
6.052094027E0,3.918900490E-1,-4.427242279E-2,1.504974365E-1
6.071960537E0,6.571159363E-1,2.333035469E-1,-8.056008816E-2
6.091852308E0,7.787146568E-1,4.166393280E-1,-6.909286976E-2
6.111765121E0,7.692708969E-1,7.989096642E-1,1.171541214E-1
6.131649235E0,1.251607895E0,1.242005348E0,-1.568516493E-1
6.151535173E0,1.893718004E0,1.570962906E0,-2.700328827E-1
6.171405381E0,2.142559528E0,1.774367332E0,2.089769840E-1
6.191324287E0,2.379212856E0,1.399595261E0,4.482262135E-1
6.211182725E0,2.485700607E0,4.671726227E-1,5.993239880E-1
6.231082048E0,2.443440199E0,-2.833747864E-1,7.642486095E-1
6.250957985E0,2.541070938E0,-4.591531754E-1,7.577884197E-1
6.270846423E0,2.853619814E0,-4.263305664E-2,8.896064758E-1
6.290772412E0,2.766350985E0,1.144849300E0,2.050035477E0
6.310652308E0,2.490285873E0,4.468856812E0,4.617296219E0
6.330512516E0,1.693913460E0,8.678339958E0,7.131341457E0
6.350403923E0,1.216544151E0,1.235680008E1,9.489005089E0
6.370333558E0,4.296313763E0,1.732472801E1,9.890098572E0
6.390215433E0,8.432327271E0,2.136274719E1,7.745118618E0
6.410094339E0,1.139303780E1,2.151185799E1,3.784940720E0
6.430011996E0,1.251236820E1,1.801397324E1,-4.669580460E-1
6.449870902E0,9.999149323E0,1.088669395E1,-3.004351139E0
6.469773298E0,5.513751507E0,7.095098495E-1,-4.332914352E0
6.489684808E0,2.584687471E0,-9.371910095E0,-6.233948231E0
6.509549027E0,2.508440495E0,-1.841967392E1,-7.831663609E0
6.529458558E0,2.971211910E0,-3.128464699E1,-7.470393181E0
6.549345329E0,2.307381630E0,-4.771466827E1,-3.283939838E0
6.569227412E0,-2.562790394E0,-4.327325439E1,4.580544472E0
6.589120016E0,-3.153491020E0,-1.983955765E1,-7.078969002E0
6.609010329E0,1.464694381E0,-1.951254964E0,-1.181868744E1
6.628922933E0,8.857761383E0,-2.438408732E-1,-1.958643436E0
6.648789339E0,7.425607204E0,-8.990124702E0,-1.810693741E0
6.668683714E0,6.347321033E0,-1.216869068E1,-6.124248505E0
6.688557829E0,6.165012360E0,-1.100986004E1,-6.672125816E0
6.708458766E0,2.971922398E0,-1.013504791E1,-3.610745430E0
6.728344964E0,-2.052621841E-1,-9.206435204E0,-1.201326847E0
6.748245850E0,-3.105082035E0,-7.346687317E0,-2.019705772E-1
6.768136214E0,-4.564640045E0,-7.160359383E0,-6.817107201E-1
6.788045016E0,-3.677334785E0,-5.757841110E0,-1.314846039E0
6.807887725E0,-2.115111351E0,-1.411393523E0,-8.510415554E-1
6.827804652E0,-1.228419304E0,1.399784088E0,4.410648346E-1
6.847705016E0,-1.230926514E-1,2.176407814E0,7.204022408E-1
6.867560485E0,1.510137081E0,3.588948727E0,1.194607973E0
6.887471423E0,2.088926315E0,5.385653496E0,2.584718704E0
6.907355537E0,1.561819077E0,5.680598259E0,4.071094513E0
6.927266996E0,1.021276474E0,4.205131531E0,4.609646797E0
6.947163766E0,1.302233219E0,3.292421818E0,4.497580528E0
6.967075902E0,2.519782066E0,4.213737965E0,3.734061480E0
6.986925746E0,3.514784098E0,4.882428646E0,3.226049662E0
7.006811475E0,3.201850414E0,4.239464760E0,3.717978239E0
7.026701006E0,2.702697515E0,2.888857841E0,3.357892752E0
7.046592673E0,2.803801775E0,1.814835548E0,1.824045181E0
7.066467100E0,2.915719748E0,1.731363773E0,6.337494850E-1
7.086350121E0,2.804294586E0,1.557989597E0,2.629675865E-1
7.106230381E0,2.447305918E0,1.209349632E0,6.521184444E-1
7.126123610E0,1.835757732E0,1.010992050E0,8.621332645E-1
7.146041266E0,1.466370106E0,1.264878750E0,5.716488361E-1
7.165927412E0,1.561690331E0,1.503533840E0,4.238970280E-1
7.185787881E0,1.728608608E0,1.370084763E0,6.547824144E-1
7.205701371E0,1.469121456E0,1.104273319E0,6.937758923E-1
7.225577829E0,1.185365677E0,1.015684605E0,5.413643122E-1
7.245463141E0,1.214863300E0,1.004935265E0,3.084602356E-1
7.265364131E0,1.424272537E0,7.459778786E-1,1.567566395E-1
7.285263350E0,1.220129490E0,4.612774849E-1,1.186604500E-1
7.305145954E0,6.651391983E-1,4.176511765E-1,1.487077475E-1
7.325139027E0,3.224883080E-1,3.755970001E-1,6.173157692E-2
7.344935329E0,3.281445503E-1,6.166162491E-1,-5.215430260E-2
7.364830485E0,3.494472504E-1,9.632167816E-1,-5.519437790E-2
7.384735954E0,1.327395439E-1,1.042050362E0,5.459928513E-2
7.404601839E0,-1.935720444E-1,7.999353409E-1,6.028771400E-2
7.424494027E0,-4.886708260E-1,5.267295837E-1,9.055113792E-2
7.444399912E0,-4.620733261E-1,2.366666794E-1,-1.421973705E-1
7.464281579E0,-3.008837700E-1,2.088546753E-3,-1.594734192E-1
7.484176266E0,-2.751750946E-1,-1.110496521E-1,1.461396217E-1
7.504064704E0,-5.620288849E-2,-9.693479538E-2,2.476680279E-1
7.523948402E0,1.807241440E-1,-1.731300354E-2,-1.596751213E-1
7.543857048E0,3.224315643E-1,2.498054504E-2,-3.335392475E-1
7.563733714E0,3.544354439E-1,-2.215814590E-2,-2.776734829E-1
7.583631162E0,3.129663467E-1,3.621578217E-2,-2.342741489E-1
7.603515433E0,3.214259148E-1,4.061985016E-2,-3.520827293E-1
7.623389391E0,4.846868515E-1,9.604263306E-2,-1.988258362E-1
7.643286787E0,6.490874290E-1,1.258497238E-1,-1.551856995E-1
7.663183402E0,6.291966438E-1,2.052741051E-1,-1.150710583E-1
7.683073714E0,4.280700684E-1,1.244034767E-1,4.119277000E-2
7.702945173E0,2.238683701E-1,-5.486679077E-2,2.222740650E-1
7.722855954E0,7.543849945E-2,-3.211307526E-2,3.662171364E-1
7.742763610E0,-1.649904251E-2,1.074409485E-1,3.874051571E-1
7.762635068E0,-7.525253296E-2,4.398345947E-2,3.186290264E-1
7.782505798E0,1.468944550E-2,2.827310562E-2,3.192169666E-1
7.802414808E0,9.573364258E-2,4.857540131E-2,1.762714386E-1
7.822293714E0,5.167484283E-3,6.147909164E-2,4.416942596E-3
7.842179860E0,-3.902149200E-2,2.433037758E-1,-9.032177925E-2
7.862054652E0,3.643512726E-2,3.038115501E-1,-1.439020634E-1
7.881977308E0,-3.012657166E-3,1.633329391E-1,-2.547812462E-2
7.901839287E0,-1.278977394E-1,7.793855667E-2,1.473810673E-1
7.921766839E0,-9.039163589E-2,2.987861633E-2,3.159408569E-1
7.941658350E0,1.644611359E-2,4.960489273E-2,2.744255066E-1
7.961519964E0,1.658263206E-1,1.109871864E-1,2.201709747E-1
7.981426683E0,2.196025848E-1,1.250324249E-1,1.337192059E-1
8.001302568E0,2.601962090E-1,8.588647842E-2,1.543066502E-1
8.021226631E0,2.434782982E-1,6.511735916E-2,1.367647648E-1
8.041105121E0,2.469434738E-1,2.030534744E-1,7.971501350E-2
8.061021579E0,3.218526840E-1,3.930692673E-1,3.349971771E-2
8.080872568E0,4.443511963E-1,4.033269882E-1,7.916450500E-3
8.100744548E0,3.610029221E-1,3.237380981E-1,-3.519487381E-2
8.120675068E0,1.709351540E-1,2.025561333E-1,-2.318599224E-1
8.140552881E0,2.792549133E-1,2.933673859E-1,-1.383965015E-1
8.160449912E0,8.965973854E-1,3.824319839E-1,-2.368917465E-1
8.180301683E0,1.565292835E0,1.450867653E-1,-5.471541882E-1
8.200199964E0,1.825785875E0,-1.454997063E-1,-5.215699673E-1
8.220109391E0,2.007561684E0,-4.486293793E-1,-3.123509884E-1
8.240008037E0,2.224686623E0,-7.141203880E-1,-3.148212433E-1
8.259873818E0,2.439512968E0,-6.323537827E-1,-2.451374531E-1
8.279782516E0,2.588084221E0,-5.835056305E-2,2.682695389E-1
8.299653037E0,2.695944309E0,7.091617584E-1,1.222944975E0
8.319552516E0,2.931274176E0,1.751640320E0,2.423785448E0
8.339454496E0,3.180934668E0,3.716825962E0,3.421092510E0
8.359312829E0,3.438573122E0,6.985358238E0,4.349822044E0
8.379235329E0,3.088196039E0,9.827799797E0,6.785692692E0
8.399092725E0,2.777582407E0,1.191528893E1,1.076794338E1
8.419023402E0,3.683173656E0,1.557790565E1,1.215597343E1
8.438917829E0,5.396538734E0,2.097006226E1,1.121998310E1
8.458775954E0,7.129424095E0,2.066128922E1,8.637958527E0
8.478683506E0,7.966168404E0,1.368090820E1,3.183093548E0
8.498559235E0,5.506781578E0,5.870391846E0,-2.204215050E0
8.518447308E0,6.969738007E-1,-2.139897585E0,-5.737659931E0
8.538346996E0,-1.206862926E0,-1.046433258E1,-9.120169640E0
8.558228246E0,2.262501001E0,-2.346208572E1,-1.304884052E1
8.578136162E0,6.282577038E0,-4.200302124E1,-1.030018902E1
8.598014131E0,8.067489624E0,-4.479254532E1,-2.748966217E-2
8.617899287E0,6.800194740E0,-2.705293083E1,-1.590717316E0
8.637803558E0,5.838153362E0,-9.912338257E0,-1.367653847E1
8.657690589E0,6.270535469E0,1.365987301E0,-6.511492729E0
8.677585225E0,5.818832874E0,-4.045318127E0,-1.218235970E0
8.697466996E0,4.637724400E0,-1.292875004E1,-6.035096169E0
8.717349652E0,2.295277119E0,-1.344127274E1,-8.240880013E0
8.737239443E0,4.057111740E-1,-9.816579819E0,-4.646744728E0
8.757166683E0,-2.354812145E0,-8.322041512E0,-2.515718937E0
8.777059027E0,-4.330853939E0,-6.690743923E0,-2.735751629E0
8.796928454E0,-3.290221214E0,-3.020686865E0,-1.472077608E0
8.816816423E0,-2.560835838E0,9.059548378E-2,1.722598076E-2
8.836715537E0,-2.224374771E0,1.145340919E0,6.917507648E-1
8.856597933E0,-1.073389053E0,2.875078678E0,1.536104679E0
8.876491475E0,-3.408451080E-1,5.572206020E0,2.743450165E0
8.896372360E0,-4.397897720E-1,6.747545242E0,4.121804237E0
8.916236787E0,-4.110317230E-1,5.217649937E0,4.484721184E0
8.936129704E0,6.406893730E-1,4.187444687E0,4.115369797E0
8.956046475E0,1.839121819E0,4.629587650E0,3.774098396E0
8.975928454E0,2.240838528E0,4.867071629E0,3.667340755E0
8.995802412E0,1.308588028E0,3.687811375E0,4.042009354E0
9.015695068E0,5.077929497E-1,1.900518894E0,4.199325562E0
9.035595485E0,5.540032387E-1,7.126603127E-1,3.987319946E0
9.055491996E0,8.679704666E-1,2.587261200E-1,3.265759230E0
9.075389235E0,1.528941631E0,6.281518936E-2,2.291963577E0
9.095290433E0,2.048121929E0,-3.417773247E-1,1.654940128E0
9.115195225E0,2.152760267E0,-7.386174202E-1,1.340092659E0
9.135080433E0,2.029485464E0,-7.379384041E-1,1.104551554E0
9.154943402E0,1.692276478E0,-3.284769058E-1,7.516989708E-1
9.174830798E0,1.415470123E0,8.807802200E-2,3.278694153E-1
9.194732881E0,1.252192974E0,2.670145035E-1,4.351503849E-1
9.214587621E0,1.106096745E0,4.582262039E-2,5.402488708E-1
9.234516475E0,8.036808968E-1,-1.025457382E-1,2.424654961E-1
9.254393610E0,5.538096428E-1,3.314967155E-1,1.067147255E-1
9.274269027E0,4.906644821E-1,6.899771690E-1,-1.134808064E-1
9.294161006E0,3.090929985E-1,6.147565842E-1,-2.666864395E-1
9.314068141E0,-2.607822418E-2,3.480820656E-1,-2.049694061E-1
9.333995693E0,-3.921408653E-1,2.439055443E-1,1.320862770E-2
9.353855693E0,-5.135860443E-1,4.151182175E-1,1.952092648E-1
9.373739704E0,-4.043045044E-1,4.633169174E-1,4.990458488E-2
9.393613923E0,-3.631024361E-1,2.745680809E-1,6.317901611E-2
9.413500277E0,-5.796079636E-1,-4.210901260E-2,1.588993073E-1
9.433393193E0,-7.529067993E-1,-1.026105881E-2,1.625015736E-1
9.453282360E0,-6.701636314E-1,1.273007393E-1,5.955481529E-2
9.473201579E0,-3.139314651E-1,1.099047661E-1,5.461978912E-2
9.493119079E0,4.471731186E-2,-2.914381027E-2,-2.048039436E-2
9.512979756E0,7.760667801E-2,-2.593183517E-2,-2.870213985E-1
9.532850381E0,2.241134644E-3,2.164635658E-1,-3.205394745E-1
9.552730902E0,1.117315292E-1,2.489452362E-1,-6.849288940E-2
9.572612829E0,3.942480087E-1,1.230025291E-1,2.044208050E-1
9.592523818E0,4.211311340E-1,-2.182102203E-2,2.209646702E-1
9.612411162E0,3.158841133E-1,6.395864487E-2,1.612048149E-1
9.632313454E0,2.181730270E-1,2.395215034E-1,1.341724396E-1
9.652182152E0,1.960210800E-1,4.138035774E-1,2.078983784E-1
9.672077568E0,2.702808380E-1,3.737850189E-1,3.370468616E-1
9.691996891E0,3.464956284E-1,2.428450584E-1,5.089190006E-1
9.711867933E0,3.296866417E-1,1.576418877E-1,4.529619217E-1
9.731761110E0,2.347755432E-1,2.233486176E-1,2.777814865E-1
9.751625485E0,1.599297523E-1,2.836704254E-1,2.464761734E-1
9.771510798E0,3.272523880E-1,1.983938217E-1,3.478808403E-1
9.791434496E0,5.089912415E-1,-5.439710617E-2,3.431382179E-1
9.811307621E0,4.887990952E-1,-3.282642365E-2,1.367912292E-1
9.831211579E0,4.330306053E-1,2.522659302E-1,-4.266214371E-2
9.851114704E0,3.548951149E-1,3.141632080E-1,-2.452826500E-2
9.871019600E0,1.972289085E-1,2.578420639E-1,6.200170517E-2
9.890880173E0,-1.180024147E-1,2.455177307E-1,2.057898045E-1
9.910757673E0,-2.861824036E-1,2.561216354E-1,3.255598545E-1
9.930659183E0,-2.568960190E-1,1.974725723E-1,2.017550468E-1
9.950565225E0,-2.626652718E-1,1.699476242E-1,9.056806564E-2
9.970414235E0,-3.442115784E-1,1.516966820E-1,-2.163767815E-2
9.990308141E0,-3.562827110E-1,6.461143494E-2,-1.971933842E-1
1.001020705E1,-2.061481476E-1,-8.190631866E-3,-2.486321926E-1
1.003009710E1,-4.646301270E-2,-1.342072487E-1,-3.382651806E-1
1.005001429E1,-9.074068069E-2,-3.278994560E-1,-5.849945545E-1
1.006987476E1,-1.237797737E-1,-3.864488602E-1,-5.237941742E-1
1.008977528E1,6.465339661E-2,-3.950152397E-1,-4.932773113E-1
1.010966720E1,1.818518639E-1,-3.948526382E-1,-4.942119122E-1
1.012955736E1,6.679201126E-2,-5.027561188E-1,-4.923853874E-1
1.014942215E1,-1.040034294E-1,-5.905580521E-1,-3.496584892E-1
1.016932746E1,-1.070756912E-1,-5.418009758E-1,-2.963500023E-1
1.018922819E1,2.415657043E-3,-2.184567451E-1,-5.061314106E-1
1.020913236E1,1.757936478E-1,2.216439247E-1,-6.424145699E-1
1.022902637E1,4.373474121E-1,3.552069664E-1,-5.390832424E-1
1.024887371E1,7.397494316E-1,6.846175194E-1,-5.938167572E-1
1.026876679E1,1.304534912E0,1.150839806E0,-1.176706791E0
1.028867200E1,2.019320011E0,8.267803192E-1,-1.141921759E0
1.030855174E1,2.278468609E0,1.313705444E-1,1.676535606E-1
1.032843668E1,2.261116028E0,-5.112123489E-2,9.932863712E-1
1.034835158E1,1.993161201E0,-2.150721550E-1,3.042116165E-1
1.036823934E1,1.583963871E0,-3.803420067E-1,-3.052339554E-1
1.038814116E1,1.479129314E0,4.522562027E-2,2.095363140E-1
1.040804575E1,1.764021158E0,6.160063744E-1,1.204382420E0
1.042791637E1,2.657322645E0,9.451136589E-1,1.927362204E0
1.044781439E1,3.815592766E0,1.773210049E0,3.162659407E0
1.046768799E1,5.001327038E0,4.233294964E0,4.126570702E0
1.048759642E1,5.876852989E0,7.585170269E0,5.935049534E0
1.050747038E1,7.166143417E0,1.050399208E1,8.552473068E0
1.052735726E1,7.899348259E0,1.474480057E1,9.955072403E0
1.054724069E1,8.542291641E0,1.868765259E1,8.527535439E0
1.056716189E1,8.254092216E0,1.976086044E1,2.166833401E0
1.058707085E1,5.171767712E0,2.035684776E1,-5.771589279E0
1.060693298E1,7.376747131E-1,1.837544250E1,-9.689422607E0
1.062681746E1,-1.978186131E0,8.244576454E0,-1.335453987E1
1.064670387E1,2.800347090E0,-4.439960480E0,-1.835982513E1
1.066657986E1,1.418791771E1,-2.217273331E1,-1.409696388E1
1.068648252E1,1.829955292E1,-4.302867126E1,-4.773647785E0
1.070636340E1,1.093393135E1,-4.791207886E1,3.180659294E0
1.072624252E1,3.461135626E0,-3.516769028E1,3.609939575E0
1.074613345E1,2.271338701E-1,-1.947546577E1,-1.003815269E1
1.076603674E1,-1.396967173E-1,-7.267129898E0,-6.379832268E0
1.078593887E1,1.400096655E0,-7.660339832E0,-3.612327576E-2
1.080580851E1,2.814069271E0,-1.216865253E1,-2.994898319E0
1.082573387E1,3.254048586E0,-1.226145840E1,-4.698446751E0
1.084559590E1,2.454943657E0,-1.133430672E1,-3.144338131E0
1.086547798E1,2.431918144E0,-1.177236080E1,-8.804264069E-1
1.088536116E1,2.250554562E0,-1.081087875E1,3.352622986E-1
1.090527762E1,2.037411928E0,-8.051185608E0,-3.927707672E-1
1.092513981E1,1.927962780E0,-3.577371836E0,-1.056418419E0
1.094507168E1,9.245309830E-1,2.303073406E-1,-6.952419281E-1
1.096493606E1,-3.829421997E-1,2.140458107E0,-9.212574959E-1
1.098484054E1,-3.634972572E-1,2.765358448E0,-1.375289440E0
1.100469767E1,-3.307065964E-1,5.345189571E0,-2.830076218E-2
1.102462502E1,-1.359462261E0,6.829434395E0,3.301594257E0
1.104449851E1,-1.448698521E0,5.311453342E0,4.004220009E0
1.106436663E1,-7.725238800E-2,4.300488949E0,2.159888268E0
1.108428835E1,8.818526268E-1,4.423646927E0,2.093721867E0
1.110416455E1,-5.066618919E-1,4.369076252E0,5.242187500E0
1.112410179E1,-8.948607445E-1,3.261505604E0,6.877816200E0
1.114395986E1,3.046073914E-1,1.702299118E0,5.427686691E0
1.116382283E1,1.738120079E0,9.008402824E-1,3.365629196E0
1.118373002E1,3.082833290E0,9.852008820E-1,2.319248676E0
1.120361929E1,3.607030869E0,7.920064926E-1,2.703526020E0
1.122351403E1,3.319238186E0,1.604647636E-1,2.785351753E0
1.124338184E1,3.325558901E0,-2.679824829E-3,1.664856195E0
1.126329361E1,3.104969501E0,7.683420181E-2,4.556868076E-1
1.128318981E1,2.488375425E0,7.241964340E-2,2.891278267E-2
1.130308502E1,1.956847191E0,3.127279282E-1,1.300642490E-1
1.132296564E1,1.698001385E0,7.132120132E-1,2.450227737E-3
1.134285851E1,1.404845715E0,1.112138748E0,-4.077289104E-1
1.136272710E1,1.099462509E0,1.116842270E0,-7.447013855E-1
1.138263205E1,4.552645683E-1,1.001101494E0,-4.692885876E-1
1.140251637E1,8.928918839E-2,1.011936188E0,1.648020744E-2
1.142239424E1,1.941437721E-1,1.171384335E0,2.458333969E-2
1.144230434E1,2.330107689E-1,1.138335705E0,-3.456814289E-1
1.146217788E1,2.436461449E-1,8.860077858E-1,-4.327228069E-1
1.148209231E1,1.759104729E-1,6.570572853E-1,-3.305435181E-3
1.150199512E1,1.637248993E-1,6.296882629E-1,2.590491772E-1
1.152184970E1,1.232738495E-1,5.223503113E-1,9.181952477E-2
1.154173392E1,-1.646780968E-1,1.117067337E-1,1.034739017E-1
1.156165658E1,-6.543674469E-1,-2.834916115E-1,4.096405506E-1
1.158151762E1,-8.366742134E-1,-1.948485374E-1,4.936656952E-1
1.160140127E1,-6.558938026E-1,6.652212143E-2,2.545866966E-1
1.162131720E1,-1.533355713E-1,3.663115501E-1,2.706027031E-2
1.164121262E1,3.440732956E-1,2.944965363E-1,-3.075475693E-1
1.166112767E1,4.736218452E-1,1.326251030E-1,-5.536437035E-1
1.168102148E1,2.054481506E-1,5.693197250E-2,-4.239351749E-1
1.170085168E1,-3.003978729E-2,9.803819656E-2,-5.124714375E-1
1.172073564E1,-9.607410431E-2,2.050132751E-1,-4.972939491E-1
1.174065845E1,-1.030182838E-1,2.121181488E-1,-3.417463303E-1
1.176053007E1,-9.153652191E-2,7.629060745E-2,-1.730608940E-2
1.178044575E1,-7.930135727E-2,-1.629729271E-1,1.318097115E-1
1.180033314E1,6.776952744E-2,-3.034396172E-1,1.474754810E-1
1.182021674E1,1.178793907E-1,-2.109909058E-1,1.964454651E-1
1.184009132E1,3.164815903E-2,-1.214957237E-1,9.826016426E-2
1.186008377E1,-1.515765190E-1,-9.395360947E-2,2.467679977E-2
1.187986351E1,-1.800341606E-1,-8.601760864E-2,-4.261994362E-2
1.189977330E1,-8.537292480E-2,-5.221223831E-2,-2.207357883E-1
1.191967715E1,7.279396057E-3,-4.030227661E-2,-3.788566589E-1
1.193955345E1,5.416059494E-2,-8.384561539E-2,-3.686866760E-1
1.195943621E1,2.181434631E-1,1.574516296E-2,-2.688446045E-1
1.197934049E1,3.767957687E-1,4.804515839E-2,-1.353247166E-1
1.199922757E1,3.059477806E-1,-5.861854553E-2,1.128530502E-1
1.201911845E1,1.068005562E-1,-1.707029343E-1,1.060740948E-1
1.203900845E1,1.239442825E-2,-7.955551147E-2,5.438923836E-2
1.205888246E1,1.116566658E-1,6.641054153E-2,6.507825851E-2
1.207879595E1,1.975674629E-1,-1.061253548E-1,-3.997421265E-2
1.209866991E1,1.279783249E-1,-2.048439980E-1,-1.347970963E-2
1.211856496E1,9.893131256E-2,-6.651210785E-2,-1.676161289E-1
1.213846335E1,2.693395615E-1,2.017135620E-1,-3.046152592E-1
1.215834663E1,5.992894173E-1,4.325928688E-1,-2.187280655E-1
1.217824700E1,8.507094383E-1,3.880290985E-1,-1.118321419E-1
1.219810689E1,9.308586121E-1,4.623517990E-1,6.977033615E-2
1.221804132E1,1.103057861E0,7.603268623E-1,1.331925392E-1
1.223791856E1,1.416033745E0,8.563537598E-1,1.842765808E-1
1.225777611E1,1.742989540E0,8.192672729E-1,4.288291931E-1
1.227770575E1,1.860791206E0,8.524818420E-1,6.295552254E-1
1.229757236E1,1.958398819E0,1.520075798E0,8.409423828E-1
1.231747616E1,2.026742458E0,1.796277046E0,8.586199284E-1
1.233735793E1,2.043667316E0,1.692263603E0,9.288396835E-1
1.235724038E1,2.287335396E0,1.655635357E0,1.305365562E0
1.237715272E1,2.645958662E0,2.099679947E0,2.183626890E0
1.239707924E1,2.932166815E0,3.628283024E0,3.121551037E0
1.241690288E1,2.914019346E0,5.202889442E0,4.008253098E0
1.243681377E1,2.278769016E0,7.339663982E0,6.998690605E0
1.245672054E1,2.742052317E0,1.259402275E1,1.179334736E1
1.247662095E1,3.824826002E0,1.860760880E1,1.299946308E1
1.249644502E1,4.881333351E0,2.176379776E1,8.494695663E0
1.251633819E1,6.715363503E0,2.030766106E1,1.832370281E0
1.253626304E1,6.715367794E0,1.386150742E1,-2.171356201E0
1.255614267E1,4.645801544E0,4.963318348E0,-4.788207054E0
1.257603226E1,3.327509642E0,-3.485476971E0,-7.744460106E0
1.259591371E1,3.904748440E0,-1.101746941E1,-1.061746407E1
1.261580387E1,7.104543686E0,-2.468870926E1,-1.151796341E1
1.263570298E1,9.086472511E0,-4.566178131E1,-2.689935207E0
1.265558236E1,6.652685165E0,-4.575014496E1,2.530401230E0
1.267548382E1,7.333910465E0,-2.989593887E1,-2.138740540E0
1.269538543E1,4.887348652E0,-1.179991531E1,-9.932852745E0
1.271526163E1,1.936634302E0,5.555729866E-1,-3.558726788E0
1.273518095E1,3.301864624E0,-8.343640327E0,-3.267129898E0
1.275505470E1,3.700470448E0,-1.616622925E1,-6.465435982E0
1.277491486E1,-1.198182106E-1,-1.454333496E1,-2.389871597E0
1.279482564E1,-2.723879814E0,-1.306327629E1,1.137678146E0
1.281474866E1,-2.853602409E0,-1.234372616E1,5.885105133E-1
1.283462033E1,-8.201947212E-1,-1.055135155E1,-1.168215275E0
1.285449705E1,1.210186243E0,-6.588687420E0,-1.497731686E0
1.287437345E1,9.924955368E-1,-1.765793800E0,-9.057550430E-1
1.289429398E1,6.159176826E-1,2.219684124E0,-4.545135498E-1
1.291414991E1,5.504970551E-1,3.933255672E0,-1.369380474E0
1.293411549E1,6.194682121E-1,5.025637150E0,-2.169645786E0
1.295396523E1,7.529802322E-1,7.087531567E0,-1.214955091E0
1.297384028E1,4.479346275E-1,7.716048241E0,1.210113287E0
1.299374845E1,-5.385169983E-1,6.404230595E0,3.744144201E0
1.301363496E1,-1.536499023E0,4.662796974E0,4.290926933E0
1.303351814E1,-9.340648651E-1,4.934635639E0,3.728935719E0
1.305341455E1,2.543096542E-1,4.945145607E0,3.283388615E0
1.307327314E1,1.191146374E0,4.254649639E0,3.521241188E0
1.309321898E1,1.263095379E0,3.237177849E0,3.493174076E0
1.311308981E1,1.539773941E0,2.411698341E0,2.469260454E0
1.313296632E1,2.206035614E0,1.940326214E0,1.371693134E0
1.315284345E1,2.583098888E0,1.265791893E0,8.579909801E-1
1.317274809E1,2.459543467E0,9.733386040E-1,9.485573769E-1
1.319264648E1,2.307329893E0,8.671545982E-1,1.032377720E0
1.321251215E1,2.005559444E0,6.180849075E-1,7.040674686E-1
1.323240330E1,1.756131172E0,5.614862442E-1,4.514083862E-1
1.325231085E1,1.668545723E0,6.099157333E-1,4.649856091E-1
1.327217319E1,1.615152836E0,6.184577942E-1,6.556768417E-1
1.329206799E1,1.574400902E0,7.760219574E-1,8.988556862E-1
1.331199439E1,1.620154858E0,9.961271286E-1,9.257121086E-1
1.333187866E1,1.411135674E0,1.002374172E0,5.699486732E-1
1.335175715E1,1.094011307E0,1.052290916E0,3.047580719E-1
1.337162132E1,7.427272797E-1,1.008983612E0,2.280976772E-1
1.339155189E1,5.504765511E-1,1.148589134E0,1.994726658E-1
1.341143658E1,4.793715477E-1,1.155482292E0,-7.339954376E-3
1.343132262E1,4.324421883E-1,9.530138969E-1,8.606314659E-2
1.345124064E1,2.375946045E-1,6.613297462E-1,1.893687248E-1
1.347109861E1,-4.427337646E-2,4.926109314E-1,1.915893555E-1
1.349102700E1,-1.713333130E-1,5.239844322E-1,2.417833805E-1
1.351085642E1,-1.478333473E-1,4.513621330E-1,1.266150475E-1
1.353077621E1,-1.168026924E-1,1.725749969E-1,3.919696808E-2
1.355064799E1,-1.789455414E-1,-9.987783432E-2,-1.288628578E-2
1.357055684E1,-3.380374908E-1,-1.477198601E-1,-1.967811584E-2
1.359044465E1,-4.101905823E-1,7.505512238E-2,-7.164669037E-2
1.361031976E1,-3.350391388E-1,9.435224533E-2,-1.715366840E-1
1.363021970E1,-2.066969872E-1,-2.007246017E-2,-1.537764072E-1
1.365010590E1,-4.277691841E-1,-1.513085365E-1,-2.517209053E-1
1.367002913E1,-6.400461197E-1,-1.902551651E-1,-2.396478653E-1
1.368989335E1,-6.022315025E-1,-2.183966637E-1,-2.854967117E-1
1.370977429E1,-5.180711746E-1,-3.496923447E-1,-5.073578358E-1
1.372968585E1,-6.184754372E-1,-4.652576447E-1,-4.909183979E-1
1.374955746E1,-8.808064461E-1,-5.790734291E-1,-1.408498287E-1
1.376942470E1,-8.924403191E-1,-5.785112381E-1,1.139025688E-1
1.378933663E1,-6.191506386E-1,-4.295849800E-1,6.461119652E-2
1.380921403E1,-4.317259789E-1,-3.053903580E-1,2.034592628E-2
1.382911335E1,-3.785939217E-1,-3.916273117E-1,-3.089284897E-2
1.384900293E1,-2.706837654E-1,-5.450992584E-1,-8.915328979E-2
1.386890877E1,-2.642393112E-1,-5.572433472E-1,6.842613220E-4
1.388876710E1,-2.622642517E-1,-3.847341537E-1,2.455258369E-2
1.390871601E1,-1.293463707E-1,-1.460762024E-1,-7.327556610E-3
1.392856715E1,-4.469585419E-2,-1.804170609E-1,-1.867532730E-2
1.394847127E1,-3.531885147E-2,-1.991376877E-1,-1.182055473E-2
1.396832470E1,-5.878639221E-2,8.250713348E-2,3.669881821E-2
1.398825252E1,-8.808755875E-2,5.775179863E-1,2.682650089E-1
1.400812049E1,-1.931190491E-4,8.113241196E-1,2.848231792E-1
1.402804304E1,-1.695728302E-2,6.929616928E-1,3.453865051E-1
1.404790049E1,-3.178071976E-2,6.771960258E-1,5.858409405E-1
1.406778616E1,2.051315308E-1,6.939854622E-1,5.832486153E-1
1.408770773E1,4.714212418E-1,6.648693085E-1,4.306552410E-1
1.410757132E1,7.027668953E-1,5.768737793E-1,2.702319622E-1
1.412745267E1,8.249101639E-1,2.659235001E-1,6.033587456E-2
1.414735762E1,1.075998783E0,8.801460266E-2,-2.065081596E-1
1.416724460E1,1.286803722E0,4.135179520E-2,-6.280405521E-1
1.418716127E1,1.340494156E0,5.375528336E-2,-7.223410606E-1
1.420707444E1,1.353122234E0,6.066322327E-2,-7.488737106E-1
1.422691043E1,1.519731522E0,-5.297660828E-2,-9.603812695E-1
1.424684158E1,1.664987087E0,-1.308383942E-1,-1.189094067E0
1.426672398E1,1.600843430E0,-5.441303253E-1,-1.199154615E0
1.428658778E1,1.567095757E0,-1.256277084E0,-9.975302219E-1
1.430647340E1,2.387762547E0,-1.619588375E0,-2.274870872E-1
1.432638069E1,3.799480438E0,-7.416987419E-1,1.009752512E0
1.434625048E1,4.980181694E0,3.312324524E0,2.994215488E0
1.436612840E1,5.685900688E0,8.644506454E0,5.329822540E0
1.438605304E1,5.551774979E0,1.304748535E1,7.527583122E0
1.440593788E1,6.128753185E0,1.425665855E1,9.845614433E0
1.442581392E1,8.222856522E0,1.532703400E1,9.669204712E0
1.444571845E1,1.104298687E1,1.556680775E1,7.278565407E0
1.446559981E1,1.322150517E1,1.631085777E1,4.905832767E0
1.448548835E1,1.316993427E1,1.320985794E1,3.019943714E0
1.450538298E1,6.267290115E0,7.182384491E0,-1.707022667E0
1.452526106E1,3.941025734E-1,-2.054759979E0,-2.531345367E0
1.454516226E1,-2.206781864E0,-1.432387447E1,-4.423587799E0
1.456507559E1,-9.998579025E-1,-2.737292862E1,-7.050293922E0
1.458491606E1,1.087529659E0,-4.516243744E1,-3.342567921E0
1.460484648E1,-1.813099623E0,-5.135274887E1,5.260334969E0
1.462472465E1,-5.418450356E0,-2.708906746E1,-2.364233017E0
1.464458048E1,-2.301125288E0,-3.231244087E0,-1.170512867E1
1.466449033E1,6.770896912E0,7.283443213E-1,-5.823447704E0
1.468439523E1,1.291545677E1,-1.139008713E1,-3.588619232E0
1.470425642E1,1.018158722E1,-1.435032082E1,-3.551940441E0
1.472414632E1,6.452513695E0,-9.978103638E0,-3.598186970E0
1.474408174E1,2.500070572E0,-8.873465538E0,-2.239100933E0
1.476395319E1,-7.998614311E-1,-1.014232540E1,-1.217696667E0
1.478382694E1,-1.274127960E0,-1.005477238E1,-4.295530319E-1
1.480373679E1,-4.473958015E-1,-8.598337173E0,-5.024442673E-1
1.482360798E1,7.138395309E-1,-6.221311569E0,-1.836452961E0
1.484349351E1,2.264489412E0,-2.683194637E0,-2.895263672E0
1.486339371E1,2.500778198E0,2.418169975E-1,-1.757255554E0
1.488330288E1,1.636339664E0,1.849090099E0,-1.649622917E-1
1.490318741E1,1.910291195E0,4.016116142E0,-5.656328201E-1
1.492309809E1,2.556747437E0,6.699854374E0,-1.647539139E0
1.494298476E1,2.184458256E0,7.419736862E0,-1.094280005E0
1.496286507E1,6.001930237E-1,5.861449242E0,1.024165869E0
1.498275970E1,-4.298148155E-1,5.419214725E0,2.477215290E0
1.500263278E1,-4.974341393E-1,6.931175709E0,1.891679525E0
1.502252236E1,1.336512566E-1,7.167815208E0,8.577312231E-1
1.504240132E1,5.223574638E-1,5.856021881E0,1.135585308E0
1.506230648E1,1.407575607E-2,4.817467690E0,2.509880543E0
1.508219023E1,3.511958122E-1,3.939284801E0,2.944006205E0
1.510208632E1,1.600280285E0,2.670668602E0,1.634548068E0
1.512200106E1,2.387525558E0,1.827785015E0,4.105668068E-1
1.514187319E1,2.629386425E0,1.348030567E0,3.456454873E-1
1.516177127E1,2.498290777E0,1.254398346E0,1.142080188E0
1.518163517E1,2.191763401E0,1.175899029E0,1.705388904E0
1.520153338E1,1.976688862E0,9.662680626E-1,1.284141541E0
1.522144651E1,1.849249840E0,9.349713326E-1,9.971529245E-1
1.524132697E1,1.758358002E0,1.017660618E0,1.268635035E0
1.526120916E1,1.609189987E0,9.755759239E-1,1.397531152E0
1.528111442E1,1.265318871E0,9.562535286E-1,1.258645058E0
1.530100921E1,8.491864204E-1,1.013216019E0,1.102603912E0
1.532088828E1,6.665134430E-1,9.901590347E-1,9.845058918E-1
1.534075760E1,7.103533745E-1,9.130024910E-1,7.654560804E-1
1.536066520E1,6.488704681E-1,1.009427071E0,4.855639935E-1
1.538054104E1,5.020875931E-1,1.234267235E0,3.565535545E-1
1.540043192E1,5.023660660E-1,1.268799782E0,1.802918464E-1
1.542032562E1,5.145769119E-1,1.104318619E0,-5.527240038E-2
1.544020791E1,2.101578712E-1,9.328088760E-1,-3.382103145E-2
1.546009479E1,-7.424497604E-2,7.145485878E-1,-6.483228505E-2
1.548002713E1,-1.241106987E-1,5.032582283E-1,-4.449576139E-3
1.549989796E1,-3.140306473E-2,2.657999992E-1,1.122966707E-1
1.551979171E1,5.357217789E-2,-4.543733597E-2,-6.412595510E-2
1.553967192E1,-1.183619499E-1,-1.626582146E-1,-1.243578494E-1
1.555956526E1,-4.470787048E-1,3.738451004E-2,1.341523528E-1
1.557944067E1,-5.737724304E-1,3.875350952E-2,2.162501216E-1
1.559931067E1,-5.174751282E-1,-1.297698021E-1,2.192474008E-1
1.561923640E1,-4.968667030E-1,-3.605766296E-1,1.160805821E-1
1.563909729E1,-4.466094971E-1,-2.886033058E-1,7.376825809E-2
1.565898333E1,-2.514772415E-1,-3.661060333E-2,2.691209316E-3
1.567887885E1,-1.002435684E-1,-1.113414764E-2,-1.502449512E-1
1.569876052E1,-2.646365166E-1,-1.334943771E-1,7.754766941E-2
1.571866749E1,-4.894232750E-1,-1.911096573E-1,3.114001751E-1
1.573856447E1,-5.010023117E-1,-1.278805733E-1,2.241734266E-1
1.575843437E1,-3.830652237E-1,-2.622222900E-2,8.321714401E-2
1.577831895E1,-1.541042328E-1,-8.224010468E-3,2.912425995E-2
1.579822656E1,-7.368278503E-2,-1.146450043E-1,1.269093752E-1
1.581811770E1,-1.288256645E-1,-1.757097244E-1,1.589163542E-1
1.583800312E1,-3.362936974E-1,-2.699341774E-1,-7.082676888E-2
1.585789276E1,-4.918031693E-1,-3.700928688E-1,-2.740345001E-1
1.587777567E1,-6.816782951E-1,-3.867201805E-1,-8.887302876E-2
1.589769640E1,-6.937971115E-1,-4.013557434E-1,3.253376484E-2
1.591755947E1,-6.551175117E-1,-5.221414566E-1,-1.309028864E-1
1.593746432E1,-6.698293686E-1,-6.343216896E-1,-2.447500229E-1
1.595734666E1,-6.133079529E-1,-7.578945160E-1,-2.189035416E-1
1.597725421E1,-5.107545853E-1,-6.669545174E-1,-9.286069870E-2
1.599716687E1,-3.864889145E-1,-3.615889549E-1,5.708456039E-2
1.601705395E1,-2.033338547E-1,-1.736178398E-1,2.818322182E-2
1.603690317E1,-9.770298004E-2,-2.197813988E-1,-3.407192230E-2
1.605680572E1,-1.151876450E-1,-2.190232277E-1,-8.242201805E-2
1.607672583E1,1.852846146E-2,3.322410583E-2,-8.712983131E-2
1.609657135E1,3.787813187E-1,1.638498306E-1,-1.105237007E-1
1.611649265E1,5.539913177E-1,4.486703873E-2,4.753804207E-2
1.613638505E1,6.797661781E-1,6.008100510E-2,2.033901215E-1
1.615627723E1,8.792943954E-1,3.835377693E-1,2.006185055E-1
1.617616229E1,1.191363811E0,7.499809265E-1,1.357579231E-1
1.619606046E1,1.446124077E0,6.032886505E-1,2.116808891E-1
1.621593343E1,1.703668118E0,2.798285484E-1,3.313941956E-1
1.623580411E1,2.011677265E0,2.162122726E-2,-2.461457253E-2
1.625573650E1,2.391937733E0,-3.420181274E-1,-8.146828413E-1
1.627561494E1,3.002724409E0,-5.824584961E-1,-1.482281327E0
1.629546921E1,3.843494177E0,-4.942283630E-1,-1.981724262E0
1.631536546E1,4.132696152E0,-4.862170219E-1,-2.063608646E0
1.633528265E1,4.033698082E0,-7.428941727E-1,-1.719098806E0
1.635516916E1,4.289067268E0,3.433756828E-1,-7.169818878E-1
1.637510281E1,4.802257538E0,3.370473862E0,6.654043198E-1
1.639495244E1,5.004897118E0,7.181450844E0,2.235072851E0
1.641484078E1,4.070512772E0,1.111208630E1,4.586736202E0
1.643470791E1,1.452151775E0,1.440418816E1,8.693954468E0
1.645461124E1,9.783902168E-1,1.835920715E1,1.197473621E1
1.647449999E1,4.343164921E0,2.168971252E1,1.213899517E1
1.649440328E1,8.890805244E0,2.386226654E1,9.212212563E0
1.651427937E1,1.291739655E1,2.201542282E1,4.531253815E0
1.653419005E1,1.287064362E1,1.403959942E1,9.390559196E-1
1.655407859E1,7.176281452E0,2.803870678E0,-4.145292759E0
1.657395661E1,1.945366859E-1,-7.250472546E0,-8.239337921E0
1.659385109E1,1.196622849E-2,-1.761034775E1,-8.250259399E0
1.661371739E1,3.376410246E0,-3.345520782E1,-7.292750359E0
1.663360489E1,1.108693981E1,-4.768684769E1,-3.569392681E0
1.665351427E1,1.105689240E1,-4.445267105E1,3.515593529E0
1.667340109E1,7.202194214E0,-2.578687859E1,-2.542390823E0
1.669329390E1,1.067745209E0,-6.368713856E0,-7.265396118E0
1.671321661E1,8.806473017E-1,-2.834404469E0,-1.940182686E0
1.673311874E1,4.273694992E0,-1.265789604E1,-7.875623703E-1
1.675298374E1,4.049010754E0,-1.473161697E1,-1.929113865E0
1.677283296E1,2.652197123E0,-1.269114304E1,-9.990401268E-1
1.679273656E1,1.750843287E0,-1.187315083E1,-8.275895119E-1
1.681263010E1,2.405513287E0,-1.165125084E1,-1.244338036E0
1.683251390E1,3.141786814E0,-1.056768227E1,-1.218183041E0
1.685241276E1,3.278771877E0,-7.658411026E0,-8.056273460E-1
1.687231463E1,2.319842339E0,-3.784144163E0,-1.259778023E0
1.689219072E1,1.254447699E0,-1.335954666E-1,-1.013244152E0
1.691207541E1,1.318855286E0,2.457373381E0,-6.873130798E-3
1.693199411E1,1.857401609E0,3.983432531E0,-8.070654869E-1
1.695188927E1,1.989304304E0,5.460220337E0,-2.964892626E0
1.697174645E1,1.080956459E0,7.967949390E0,-4.532324314E0
1.699165671E1,-5.362362862E-1,9.037948608E0,-1.664419889E0
1.701153322E1,-2.378975868E0,7.928599358E0,1.408181190E0
1.703142786E1,-3.053812981E0,6.695317745E0,2.012593746E0
1.705132104E1,-2.622848511E0,6.191967010E0,2.492935181E0
1.707123760E1,-2.048120499E0,5.517565250E0,3.578334570E0
1.709112182E1,-1.733956337E0,4.242666245E0,3.684666872E0
1.711100734E1,-9.982933998E-1,3.339536667E0,2.775868416E0
1.713085953E1,2.371287346E-1,2.819989204E0,1.161136389E0
1.715076890E1,1.515672207E0,2.301755428E0,1.490527391E-1
1.717069062E1,2.880542278E0,1.780335903E0,-1.471241713E-1
1.719056218E1,3.577956200E0,1.350785732E0,-1.937314272E-1
1.721044354E1,3.308391809E0,1.406833172E0,-1.530457735E-1
1.723032244E1,2.987967968E0,1.320192814E0,-7.847571373E-2
1.725022276E1,2.763256073E0,9.289159775E-1,2.906394005E-1
1.727009927E1,2.550933361E0,1.017255783E-1,1.013782740E0
1.729002161E1,2.232426643E0,-8.388900757E-2,1.956373930E0
1.730987958E1,2.051567078E0,3.622326851E-1,2.248673439E0
1.732976098E1,2.136621475E0,6.089863777E-1,1.296888828E0
1.734966947E1,2.097858906E0,7.556681633E-1,6.608653069E-2
1.736956911E1,1.813093185E0,9.565448761E-1,-5.340684652E-1
1.738946171E1,1.556356907E0,1.370018482E0,-7.714539766E-1
1.740933427E1,1.354015350E0,1.601121426E0,-8.800848722E-1
1.742920999E1,1.057019711E0,1.589156151E0,-6.016290188E-1
1.744912260E1,6.045298576E-1,1.345115662E0,-3.983494043E-1
1.746904999E1,4.066882133E-1,1.037590027E0,-1.754530668E-1
1.748894817E1,4.045014381E-1,8.829607964E-1,1.603993177E-1
1.750879994E1,4.713597298E-1,1.009836197E0,5.519272089E-1
1.752869119E1,3.140239716E-1,9.612135887E-1,6.743716002E-1
1.754857604E1,1.055855751E-1,8.492584229E-1,5.921406746E-1
1.756845942E1,1.372032166E-1,7.631311417E-1,3.796873093E-1
1.758836130E1,2.358636856E-1,7.052240372E-1,2.236092091E-1
1.760825223E1,2.847847939E-1,6.277074814E-1,2.691116333E-1
1.762811041E1,2.269883156E-1,3.940515518E-1,1.871061325E-1
1.764804578E1,1.323289871E-1,1.047201157E-1,-2.021574974E-2
1.766790802E1,1.290836334E-1,-1.001558304E-1,-3.612080812E-1
1.768781640E1,1.839189529E-1,-2.073063850E-1,-6.992375851E-1
1.770769182E1,3.175544739E-1,-1.450271606E-1,-7.171590328E-1
1.772759072E1,2.646946907E-1,-1.319541931E-1,-4.820531607E-1
1.774748223E1,-1.557602882E-1,-3.199357986E-1,-2.843402624E-1
1.776734140E1,-4.996581078E-1,-5.202670097E-1,-3.667855263E-2
1.778726286E1,-6.401705742E-1,-5.902338028E-1,1.190211773E-1
1.780716484E1,-6.722121239E-1,-5.053296089E-1,8.941030502E-2
1.782706359E1,-9.469943047E-1,-4.223837852E-1,3.051159382E-1
1.784690083E1,-1.301686287E0,-4.250192642E-1,4.128794670E-1
1.786680104E1,-1.331230640E0,-4.805850983E-1,2.428817749E-1
1.788671255E1,-1.225461006E0,-4.059510231E-1,2.664892673E-1
1.790660557E1,-1.030908585E0,-4.182090759E-1,2.074258327E-1
1.792651255E1,-6.677384377E-1,-5.385928154E-1,-3.241682053E-2
1.794636854E1,-2.193002701E-1,-3.533878326E-1,-8.990192413E-2
1.796626755E1,1.531839371E-1,-1.336584091E-1,-2.108160257E-1
1.798614421E1,3.776082993E-1,-1.268973351E-1,-2.962213755E-1
1.800603812E1,4.795188904E-1,-2.672357559E-1,-2.184904814E-1
1.802594895E1,6.286816597E-1,-3.151602745E-1,-2.358651161E-1
1.804583083E1,7.776937485E-1,-2.777676582E-1,-3.528801203E-1
1.806573369E1,8.514857292E-1,-1.800575256E-1,-3.383717537E-1
1.808560828E1,8.188204765E-1,-1.567497253E-1,-9.476590157E-2
1.810550229E1,6.491079330E-1,-2.335619926E-1,7.829761505E-2
1.812537078E1,6.166267395E-1,-1.798429489E-1,-1.405328512E-1
1.814529046E1,3.489499092E-1,9.509134293E-2,-3.623270988E-1
1.816518296E1,-2.158837318E-1,3.533759117E-1,-2.531999350E-1
1.818509213E1,-8.070054054E-1,3.406529427E-1,9.356331825E-2
1.820493786E1,-1.027544975E0,5.001964569E-1,4.195690155E-1
1.822482223E1,-7.335343361E-1,9.919662476E-1,6.234686375E-1
1.824474578E1,-7.852840424E-2,1.189401150E0,5.756763220E-1
1.826463463E1,8.560948372E-1,1.186553955E0,4.234633446E-1
1.828448578E1,1.908331871E0,1.310519218E0,5.414659977E-1
1.830438171E1,2.968633175E0,1.755590439E0,7.593287230E-1
1.832428296E1,3.849317074E0,2.205853939E0,1.119938612E0
1.834417833E1,4.438728333E0,2.287564278E0,1.747691274E0
1.836409307E1,4.433271885E0,1.439010620E0,2.162873745E0
1.838394838E1,3.584872723E0,3.828883171E-1,2.497636080E0
1.840383598E1,2.852067471E0,1.243547440E0,3.861480713E0
1.842372531E1,1.764133930E0,6.329366207E0,7.647341728E0
1.844363015E1,-1.582996368E0,1.402452278E1,1.372508526E1
1.846350874E1,-3.006332397E0,1.951564598E1,1.687320137E1
1.848341145E1,-5.096454620E-1,2.307071686E1,1.287790871E1
1.850328687E1,2.028473854E0,2.589136505E1,6.889767647E0
1.852322083E1,2.675921440E0,2.357855606E1,1.568628311E0
1.854313598E1,3.842864513E0,1.415263844E1,-4.604812145E0
1.856297416E1,3.685224295E0,1.621464968E0,-6.895328045E0
1.858288192E1,2.222554207E0,-1.090153027E1,-4.340391636E0
1.860275302E1,2.058521271E0,-2.298635674E1,-6.245059013E0
1.862265276E1,4.688776970E0,-3.749108887E1,-1.027550602E1
1.864254005E1,7.475390911E0,-5.249657440E1,-6.407044888E0
1.866243015E1,3.271367311E0,-4.114044952E1,-3.001060963E0
1.868232067E1,-1.424290538E0,-8.581386566E0,-9.036209106E0
1.870220932E1,2.610081196E0,3.324594975E0,-6.758431435E0
1.872206765E1,6.740040779E0,-1.155664349E1,-1.720076561E0
1.874198307E1,6.758795738E0,-2.019112206E1,-2.580419540E0
1.876188640E1,5.495525837E0,-1.330634975E1,-1.099176407E-1
1.878176859E1,2.847029686E0,-1.176093960E1,1.160779953E0
1.880165895E1,2.233338356E0,-1.214860916E1,-4.371833801E-2
1.882154822E1,2.051971674E0,-9.131051064E0,4.971828461E-1
1.884143619E1,1.031528950E0,-7.584363461E0,1.393276215E0
1.886132411E1,1.128503799E0,-5.962610245E0,1.223512173E0
1.888121739E1,9.860148430E-1,-1.721307158E0,-6.587362289E-2
1.890110291E1,2.089905739E-1,2.068306208E0,-1.181250095E0
1.892103437E1,2.369074821E-1,2.974864960E0,-1.355874538E0
1.894087328E1,9.100818634E-2,3.653089046E0,3.562078476E-1
1.896078416E1,-6.171321869E-2,6.314920425E0,1.278097153E0
1.898065098E1,2.208986282E-1,7.661397457E0,-1.840276718E-1
1.900054802E1,1.154423714E0,7.147329330E0,-1.383488536E0
1.902046234E1,3.123698235E-1,6.161908627E0,5.529966354E-1
1.904031989E1,-1.385664940E0,6.204156399E0,3.450373888E0
1.906022322E1,-8.024024963E-1,6.324353218E0,3.384044409E0
1.908009015E1,5.347542763E-1,5.302897453E0,1.879785419E0
1.910003848E1,1.439056873E0,3.526388645E0,1.340852618E0
1.911990635E1,1.409443855E0,2.766960621E0,1.878739119E0
1.913979656E1,1.927300453E0,3.334868908E0,2.188633204E0
1.915966666E1,2.577405453E0,3.189075947E0,1.143127680E0
1.917954432E1,2.893027306E0,2.374728680E0,5.047702789E-1
1.919947932E1,2.648555756E0,1.588926792E0,7.159436345E-1
1.921936229E1,2.315195084E0,9.159703255E-1,1.190373778E0
1.923920229E1,2.252842426E0,7.213783264E-1,1.589010239E0
1.925910380E1,2.232872009E0,8.657956123E-1,1.792303562E0
1.927899901E1,1.769974709E0,9.617700577E-1,1.709181309E0
1.929888510E1,1.232998848E0,9.433674812E-1,9.495840073E-1
1.931876796E1,8.368444443E-1,1.319904327E0,2.972986102E-1
1.933866312E1,7.244973183E-1,1.941941738E0,4.115676284E-1
1.935857661E1,7.356257439E-1,2.058196545E0,5.438801646E-1
1.937845161E1,6.627321243E-1,1.773291588E0,6.658321619E-2
1.939832650E1,6.214604378E-1,1.448125839E0,-4.553680122E-1
1.941823557E1,6.878123283E-1,1.238168716E0,-4.069423676E-1
1.943811848E1,8.514385223E-1,7.873277664E-1,-3.511479497E-1
1.945801124E1,1.008132935E0,2.607922554E-1,-4.768379629E-1
1.947789661E1,1.281240463E0,-2.727508545E-2,-5.696855783E-1
1.949778182E1,1.528630257E0,-2.882571220E-1,-5.766445398E-1
1.951770885E1,1.490960598E0,-2.306737900E-1,-2.567236423E-1
1.953760302E1,1.209224224E0,1.697497368E-1,1.589027047E-1
1.955749369E1,9.287371635E-1,6.075768471E-1,2.526169419E-1
1.957735161E1,5.341482162E-1,8.020901680E-1,2.261450291E-1
1.959724156E1,3.271055222E-2,1.054660797E0,4.291926622E-1
1.961717989E1,-3.726992607E-1,1.515115261E0,8.003354669E-1
1.963709229E1,-6.538934708E-1,1.920674324E0,1.037755251E0
1.965692541E1,-7.939910889E-1,1.746698856E0,7.840319276E-1
1.967680781E1,-8.255524635E-1,1.163200378E0,1.964517832E-1
1.969672187E1,-5.739164352E-1,6.937050819E-1,-1.197783351E-1
1.971659749E1,-1.213583946E-1,4.785928726E-1,-1.775671244E-1
1.973650817E1,4.248929024E-1,2.367939949E-1,-3.495280445E-1
1.975635182E1,7.422909737E-1,-1.986198425E-1,-5.891274214E-1
1.977626411E1,7.556734085E-1,-6.397647858E-1,-6.018435359E-1
1.979614406E1,4.059891701E-1,-1.059119701E0,-5.156779289E-1
1.981607593E1,-1.166410446E-1,-9.254832268E-1,-2.186442316E-1
1.983594942E1,-5.388641357E-1,-7.571158409E-1,1.491727233E-1
1.985582687E1,-7.550597191E-1,-2.291641235E-1,2.248092890E-1
1.987573338E1,-1.206503868E0,3.489599228E-1,3.371365070E-1
1.989560921E1,-1.851165771E0,8.862037659E-1,5.309206247E-1
1.991547958E1,-1.950154781E0,1.247165680E0,5.001201034E-1
1.993538192E1,-1.700596809E0,1.029792309E0,3.407820463E-1
1.995529859E1,-1.276573181E0,4.682197571E-1,1.238956451E-1
1.997518650E1,-6.825199127E-1,-1.420674324E-1,-2.035611272E-1
1.999511854E1,-1.475243568E-1,-9.785351753E-1,-7.165936828E-1
2.001495760E1,3.312540054E-1,-1.753537655E0,-9.798375368E-1
2.003485354E1,8.820343018E-1,-2.211017132E0,-1.170157075E0
2.005473291E1,1.486150742E0,-2.476138592E0,-1.400761843E0
2.007462395E1,1.724763870E0,-2.414100647E0,-1.508870602E0
2.009450302E1,1.302932262E0,-1.781009674E0,-1.158493519E0
2.011438489E1,8.082299232E-1,-1.003767490E0,-6.290603876E-1
2.013428645E1,2.102165222E-1,-3.882737160E-1,-1.094400883E-1
2.015419234E1,-7.852840424E-2,4.029321671E-2,1.715152264E-1
2.017411432E1,-1.854658127E-2,6.208729744E-1,4.738668203E-1
2.019395874E1,7.835340500E-2,1.088890553E0,5.903906822E-1
2.021385364E1,-4.737329483E-2,6.812605858E-1,6.221237183E-1
2.023373906E1,-5.402660370E-2,6.118202209E-2,1.254724503E0
2.025360703E1,3.051910400E-1,-5.254492760E-1,1.662813783E0
2.027352088E1,6.419010162E-1,-8.382320404E-1,1.862580538E0
2.029339171E1,1.313861847E0,-5.475111008E-1,2.272415638E0
2.031329442E1,1.918377876E0,-1.462697983E-2,2.656540155E0
2.033321479E1,2.409975529E0,8.097119331E-1,2.442554235E0
2.035311567E1,2.964868546E0,2.301682472E0,2.386664629E0
2.037298161E1,2.610469818E0,4.783815384E0,3.619014025E0
2.039287098E1,2.442131519E0,9.629091263E0,4.938199997E0
2.041275072E1,1.785389423E0,1.349098206E1,5.659004211E0
2.043263020E1,-5.817756653E-1,1.513190079E1,7.628175735E0
2.045253624E1,-1.339120865E0,1.670034409E1,9.650092125E0
2.047240562E1,-4.367942810E-1,1.687069702E1,9.293850899E0
2.049231817E1,7.106494904E-2,1.738804436E1,8.408115387E0
2.051220583E1,8.912000656E-1,1.745879936E1,7.456889153E0
2.053207380E1,2.308582783E0,1.354989815E1,4.559370995E0
2.055202807E1,3.985200405E0,5.263974190E0,-4.438729286E-1
2.057185864E1,3.953385830E0,-6.243546486E0,-4.673241138E0
2.059177484E1,2.656395435E0,-1.653671455E1,-6.234010696E0
2.061166276E1,2.212368965E0,-2.569730759E1,-5.150659561E0
2.063152229E1,3.048150063E0,-3.973306656E1,-4.225321293E0
2.065144807E1,2.612083912E0,-4.502616501E1,-7.464576721E0
2.067132187E1,3.117667198E0,-2.620562553E1,-1.107224274E1
2.069124828E1,3.763834000E0,-2.390859604E0,-8.021589279E0
2.071111874E1,7.457207203E0,-3.541188240E-1,-3.934689045E0
2.073103578E1,9.946202278E0,-1.218533993E1,-4.482858658E0
2.075086515E1,7.772255898E0,-1.705994225E1,-4.362954617E0
2.077075989E1,3.992193460E0,-1.455355930E1,-2.393339634E0
2.079067380E1,6.763463020E-1,-1.183671284E1,-5.119476318E-1
2.081054322E1,-2.027256489E0,-1.015564251E1,-1.154612064E0
2.083044192E1,-3.125609875E0,-7.668761730E0,-2.128189087E0
2.085034484E1,-2.692678452E0,-3.110866070E0,-1.528315783E0
2.087021057E1,-2.102448463E0,1.182570219E0,-1.012405872E0
2.089011901E1,-1.027119637E0,2.961805105E0,-9.563055038E-1
2.091004531E1,-2.885646820E-1,3.247025013E0,-6.202435493E-2
2.092987640E1,3.204355240E-1,4.318911552E0,1.548627853E0
2.094980671E1,1.187790394E0,6.837868690E0,2.796760082E0
2.096969921E1,1.917649746E0,7.177574635E0,3.035144806E0
2.098957411E1,1.549552441E0,5.927876472E0,3.846460819E0
2.100945833E1,8.901505470E-1,4.169991493E0,4.357383251E0
2.102935135E1,1.230337143E0,3.624948502E0,3.786542654E0
2.104923979E1,2.437012196E0,4.089461803E0,2.585778236E0
2.106912317E1,3.710444450E0,3.767563820E0,1.209141135E0
2.108902161E1,4.417830467E0,3.171429634E0,1.977776289E-1
2.110891171E1,4.544333458E0,3.044457436E0,2.211124897E-1
2.112879703E1,4.458737850E0,3.216890812E0,8.994603157E-2
2.114869942E1,4.061187744E0,2.719896793E0,-5.870368481E-1
2.116855833E1,3.521544218E0,1.911406040E0,-9.267244935E-1
2.118845552E1,3.060804844E0,1.401073933E0,-4.179173708E-1
2.120836156E1,2.672587156E0,1.377010822E0,2.450147867E-1
2.122826026E1,2.325160742E0,1.567202568E0,4.260494709E-1
2.124813473E1,1.970275640E0,1.336508274E0,3.536134958E-1
2.126804390E1,1.569025993E0,8.891057968E-1,4.712659121E-1
2.128789395E1,1.198644161E0,6.906723976E-1,6.756911278E-1
2.130778354E1,1.126687527E0,1.026759148E0,8.610849380E-1
2.132767489E1,1.251763821E0,1.218204021E0,6.921653748E-1
2.134758473E1,1.285008430E0,1.034599304E0,4.061675072E-1
2.136748515E1,1.159627914E0,6.993789673E-1,3.794864416E-1
2.138736942E1,8.859119415E-1,4.820680618E-1,3.320560455E-1
2.140725880E1,7.802529335E-1,5.760116577E-1,2.353622913E-1
2.142713994E1,7.153639793E-1,5.645580292E-1,1.033626795E-1
2.144707406E1,6.937489510E-1,3.960418701E-1,5.992329121E-2
2.146690656E1,5.595202446E-1,1.571521759E-1,-1.652342081E-1
2.148679760E1,3.746294975E-1,3.049697876E-1,-2.016271353E-1
2.150671473E1,3.283081055E-1,5.842409134E-1,-9.490013123E-3
2.152662281E1,4.176230431E-1,4.634494781E-1,2.310395241E-1
2.154647197E1,3.612971306E-1,2.127265930E-1,2.816826105E-1
2.156638270E1,6.453895569E-2,2.250914574E-1,2.189244032E-1
2.158628567E1,-1.195073128E-1,5.977110863E-1,3.679788113E-1
2.160615697E1,-6.107902527E-2,7.768812180E-1,5.352106094E-1
2.162605666E1,-7.264089584E-2,6.371698380E-1,4.434003830E-1
2.164593937E1,-1.573262215E-1,4.332904816E-1,1.317945719E-1
2.166581546E1,-1.318879128E-1,3.632292747E-1,-5.823731422E-2
2.168574140E1,3.613805771E-2,1.725702286E-1,-1.407172680E-1
2.170562661E1,8.444070816E-2,-1.477413177E-1,-1.211738586E-1
2.172550369E1,1.867036819E-1,8.307218552E-2,-9.661042690E-2
2.174539572E1,2.840819359E-1,4.582214355E-1,-2.677567005E-1
2.176528135E1,2.723083496E-1,4.873375893E-1,-3.031196594E-1
2.178518755E1,1.573967934E-1,2.668399811E-1,-7.558631897E-2
2.180507270E1,-1.430010796E-1,1.888780594E-1,1.782267094E-1
2.182493900E1,-4.699935913E-1,1.729264259E-1,-4.099059105E-2
2.184485442E1,-6.774258614E-1,1.661424637E-1,-2.874292135E-1
2.186474124E1,-9.206428528E-1,1.631946564E-1,-2.894171476E-1
2.188462494E1,-9.565196037E-1,2.338333130E-1,-2.853941917E-1
2.190449692E1,-9.336500168E-1,2.546834946E-1,-5.003774166E-1
2.192440963E1,-9.682960510E-1,1.532397270E-1,-6.863673925E-1
2.194430098E1,-9.527082443E-1,-8.284235001E-2,-5.032986403E-1
2.196418541E1,-8.705840111E-1,-4.253568649E-1,-2.984632254E-1
2.198409473E1,-6.709308624E-1,-7.451815605E-1,-1.915962696E-1
2.200403848E1,-5.080356598E-1,-1.053978443E0,-1.050484180E-1
2.202385822E1,-3.346443176E-1,-1.181656837E0,-1.327569485E-1
2.204373468E1,-1.667938232E-1,-1.109001637E0,-2.226877213E-1
2.206363864E1,-4.616594315E-2,-8.890051842E-1,-2.259192467E-1
2.208353916E1,1.498460770E-2,-7.805886269E-1,-7.541441917E-2
2.210339781E1,-6.006669998E-2,-8.132925034E-1,-1.048040390E-2
2.212329864E1,-2.689228058E-1,-9.384155273E-1,-2.985610962E-1
2.214322729E1,-3.842902184E-1,-9.922618866E-1,-4.412367344E-1
2.216312052E1,-2.677102089E-1,-9.579844475E-1,-3.595395088E-1
2.218303874E1,-3.592662811E-1,-9.751768112E-1,-2.217550278E-1
2.220288437E1,-7.150106430E-1,-1.119936943E0,-2.477467060E-1
2.222277338E1,-9.471154213E-1,-1.247204781E0,-2.971973419E-1
2.224264791E1,-8.418588638E-1,-1.465216160E0,-3.915064335E-1
2.226251473E1,-3.207373619E-1,-1.802438259E0,-5.598940849E-1
2.228244536E1,6.057095528E-1,-2.179950714E0,-8.289155960E-1
2.230231687E1,1.913004398E0,-2.317512512E0,-1.076186895E0
2.232219854E1,3.166556835E0,-2.017846107E0,-1.003149033E0
2.234207999E1,3.933986664E0,-1.134205341E0,-8.791780472E-2
2.236201666E1,4.402479649E0,1.787414551E-1,9.043145180E-1
2.238186833E1,4.195986748E0,2.492285252E0,2.319305897E0
2.240175864E1,4.472131729E0,6.940204620E0,4.103745461E0
2.242166505E1,5.158978462E0,1.288781548E1,5.416245461E0
2.244153885E1,4.638933182E0,1.667463112E1,6.419384003E0
2.246142374E1,2.997482300E0,1.909271240E1,7.570797920E0
2.248131781E1,3.064870834E0,2.196829796E1,9.243747711E0
2.250123807E1,5.529083729E0,2.505558777E1,1.095575142E1
2.252112453E1,8.903023720E0,2.421819305E1,9.159077644E0
2.254104307E1,1.065484524E1,1.755470848E1,5.471442699E0
2.256088843E1,9.802997589E0,8.631439209E0,3.145046711E0
2.258078166E1,6.890652180E0,2.844715118E-1,-2.012037516E0
2.260066333E1,3.845237732E0,-7.219473839E0,-7.187524319E0
2.262055145E1,3.143150806E0,-1.186514282E1,-8.499261856E0
2.264042926E1,5.401440620E0,-2.880457306E1,-7.915375710E0
2.266035453E1,7.047070980E0,-4.977021408E1,-3.763787270E0
2.268021140E1,1.008146667E1,-5.014004898E1,-1.444874763E0
2.270011822E1,9.294599533E0,-2.306963730E1,-6.551087379E0
2.272004182E1,-9.702632427E-1,-5.223364830E-1,-6.125184059E0
2.273987744E1,4.437468529E0,-7.588605404E0,-3.431712627E0
2.275980187E1,7.638218403E0,-1.677896309E1,-4.834705830E0
2.277967390E1,5.130704880E0,-1.345400620E1,-2.976100445E0
2.279957526E1,9.772286415E-1,-1.207926083E1,-2.232441902E-1
2.281946109E1,-3.824758530E-2,-1.176310062E1,1.992497444E-1
2.283933901E1,9.850130081E-1,-1.123327637E1,-6.690311432E-1
2.285923687E1,8.448915482E-1,-1.042406273E1,1.277642250E-1
2.287914265E1,2.443425179E0,-6.726284981E0,1.068352222E0
2.289903447E1,2.865646601E0,-3.049582005E0,-2.908344269E-1
2.291892713E1,2.153978825E0,3.072209358E-1,-1.448505402E0
2.293881062E1,1.561097145E0,3.254566193E0,-2.862277031E-1
2.295869973E1,1.020577908E0,3.595449924E0,5.671277046E-1
2.297858984E1,1.427075386E0,5.340808868E0,-1.992459297E-1
2.299848588E1,1.250725269E0,8.658704758E0,-1.111234903E0
2.301835895E1,-2.564144135E-2,9.854871750E0,1.568641663E0
2.303825265E1,-1.340194702E0,8.026132584E0,4.842686176E0
2.305813312E1,-1.125085831E0,4.876411915E0,4.755188942E0
2.307806807E1,-3.337764740E-2,3.428831577E0,3.346817017E0
2.309790906E1,1.360225201E0,3.912911415E0,2.142899036E0
2.311780098E1,2.695260525E0,3.595980644E0,1.277138591E0
2.313772119E1,2.816964149E0,2.941638470E0,1.870472670E0
2.315759947E1,2.850625992E0,2.238393784E0,2.319168329E0
2.317748619E1,3.157510281E0,2.091883183E0,1.454383612E0
2.319736958E1,3.264688492E0,2.461674213E0,3.596153259E-1
2.321725520E1,3.104337692E0,2.306897640E0,1.788949966E-2
2.323716828E1,2.823447227E0,2.254028320E0,8.292894363E-1
2.325705338E1,2.519789219E0,2.046540737E0,1.308322072E0
2.327692833E1,2.239400387E0,1.669780731E0,8.678381443E-1
2.329679958E1,2.023153305E0,1.761371136E0,2.904678583E-1
2.331672484E1,1.735764503E0,1.918311119E0,4.474710226E-1
2.333658666E1,1.272776127E0,1.695425034E0,9.010325670E-1
2.335648124E1,1.064702034E0,1.234321594E0,9.323360920E-1
2.337636249E1,9.110927582E-1,8.327727318E-1,5.090488195E-1
2.339627692E1,8.297967911E-1,8.879933357E-1,2.575100660E-1
2.341614593E1,7.535705566E-1,7.907080650E-1,3.168162107E-1
2.343605364E1,4.595417976E-1,3.593926430E-1,4.725991488E-1
2.345594557E1,3.455877304E-2,-6.187343597E-2,1.511377096E-1
2.347582676E1,-2.591776848E-1,7.430315018E-2,-2.051038742E-1
2.349571166E1,-2.739524841E-1,3.925876617E-1,-2.683766484E-1
2.351564062E1,-2.124843597E-1,4.366683960E-1,-2.299996614E-1
2.353551244E1,-2.943439484E-1,3.480935097E-1,-3.476797342E-1
2.355539802E1,-2.444329262E-1,3.614764214E-1,-3.606964350E-1
2.357528947E1,-1.160807610E-1,4.490995407E-1,-3.673570156E-1
2.359521270E1,-2.888026237E-1,3.630714417E-1,-3.303917050E-1
2.361510515E1,-4.282941818E-1,3.384037018E-1,-4.635965824E-2
2.363497499E1,-3.133440018E-1,1.826634407E-1,-1.352118254E-1
2.365486468E1,-2.180719376E-1,1.036210060E-1,-1.106718779E-1
2.367474942E1,1.131291389E-1,1.612524986E-1,9.598910809E-2
2.369463619E1,2.973294258E-1,1.133470535E-1,1.077594757E-1
2.371451010E1,1.743888855E-1,1.038122177E-2,1.900335550E-1
2.373441265E1,6.848812103E-2,-8.644151688E-2,1.973505020E-1
2.375429343E1,1.203460693E-1,-1.410861015E-1,5.951714516E-2
2.377418624E1,1.853842735E-1,-2.019214630E-1,8.629131317E-2
2.379406619E1,1.204776764E-2,-2.256317139E-1,1.786947250E-1
2.381404052E1,-5.775113106E-1,-2.640471458E-1,5.578172207E-2
2.383384046E1,-8.396697044E-1,-4.419803619E-1,-9.175121784E-2
2.385376328E1,-7.132339478E-1,-6.484613419E-1,-2.627222538E-1
2.387366286E1,-5.629386902E-1,-7.445740700E-1,-4.739636183E-1
2.389352166E1,-6.230688095E-1,-6.403470039E-1,-7.184851170E-1
2.391343630E1,-8.183598518E-1,-4.969520569E-1,-6.911262274E-1
2.393330208E1,-8.854827881E-1,-4.631776810E-1,-5.888695717E-1
2.395321578E1,-9.018363953E-1,-5.195512772E-1,-4.815663099E-1
2.397309718E1,-9.065923691E-1,-4.853081703E-1,-4.196254015E-1
2.399300369E1,-8.166570663E-1,-4.607610703E-1,-3.484750986E-1
2.401287744E1,-6.196956635E-1,-4.655380249E-1,-1.904984713E-1
2.403276614E1,-3.644990921E-1,-6.032161713E-1,-1.855862141E-1
2.405266505E1,-3.245124817E-1,-7.183656693E-1,-1.669278145E-1
2.407254505E1,-1.765398979E-1,-5.566639900E-1,7.752180099E-3
2.409243828E1,1.769824028E-1,-3.565106392E-1,-5.155611038E-2
2.411233921E1,5.558567047E-1,-3.634872437E-1,-3.674991131E-1
2.413220218E1,9.665288925E-1,-4.915771484E-1,-3.684320450E-1
2.415211651E1,1.267542839E0,-5.462708473E-1,2.361297607E-3
2.417199427E1,1.504962921E0,-6.289086342E-1,1.921663284E-1
2.419187302E1,2.008692265E0,-5.370249748E-1,7.553982735E-2
2.421177401E1,2.650499344E0,-3.687820435E-1,-4.603028297E-2
2.423168588E1,3.197938204E0,2.988910675E-2,1.435542107E-2
2.425156374E1,3.373887300E0,5.440049171E-1,2.250862122E-1
2.427145588E1,3.333947897E0,1.005292416E0,2.593617439E-1
2.429132739E1,3.415313959E0,1.384242535E0,6.206619740E-2
2.431122932E1,3.374113798E0,1.649783611E0,-7.930874825E-2
2.433113005E1,3.082826614E0,2.020808220E0,1.402496099E-1
2.435104484E1,2.901172161E0,2.918468475E0,5.335114002E-1
2.437087588E1,2.685022354E0,4.747215271E0,8.661999702E-1
2.439077624E1,2.366219521E0,6.167461395E0,1.194794059E0
2.441068369E1,2.068848133E0,8.005811691E0,2.148195267E0
2.443055958E1,1.532654285E0,1.115429688E1,3.719170570E0
2.445043651E1,7.166767120E-1,1.499575806E1,5.898651123E0
2.447034994E1,-1.054766178E0,1.797350693E1,7.310113907E0
2.449023244E1,-2.300972939E0,1.775055885E1,6.719285011E0
2.451012458E1,-6.443500519E-1,1.882996178E1,4.946656227E0
2.453004744E1,3.182944775E0,2.097311401E1,2.427289009E0
2.454991302E1,6.021559715E0,1.951642799E1,4.612827301E-2
2.456982088E1,6.835066795E0,1.349710274E1,-1.809509754E0
2.458970390E1,5.377984047E0,4.381122112E0,-3.875981808E0
2.460958135E1,1.867150307E0,-7.067868710E0,-5.732246399E0
2.462945697E1,2.042208672E0,-1.652847862E1,-7.907990932E0
2.464934322E1,4.902043343E0,-3.090293694E1,-8.443871498E0
2.466922531E1,5.610769749E0,-4.737868500E1,-6.147175312E0
2.468913281E1,5.684704781E0,-4.539492035E1,-5.565758705E0
2.470906036E1,5.607259274E0,-2.533686066E1,-7.306361198E0
2.472895744E1,1.391128898E0,-4.817510605E0,-6.516774178E0
2.474882088E1,3.344388723E0,-4.294399738E0,-3.486036301E0
2.476870276E1,4.905593872E0,-1.199481106E1,3.184261322E-1
2.478859890E1,2.116214991E0,-1.574452400E1,-1.359560013E0
2.480847786E1,1.571900606E0,-1.455659771E1,-1.502291203E0
2.482838578E1,-1.008124352E0,-1.306010914E1,-1.144658089E0
2.484828713E1,-2.466867447E0,-1.020852089E1,-1.456260681E0
2.486815302E1,-1.657001019E0,-6.340084076E0,-1.216267109E0
2.488804916E1,-1.045335293E0,-2.934135675E0,-1.017057896E0
2.490794828E1,-1.326246262E-1,-5.517919064E-1,-1.385064125E0
2.492780171E1,2.502169609E-1,1.628659248E0,-1.650193930E0
2.494770812E1,-2.856059074E-1,3.688694477E0,1.131402254E0
2.496760213E1,-3.985075951E-1,3.634092808E0,3.622417688E0
2.498749088E1,6.762137413E-1,4.091890335E0,3.287430048E0
2.500738130E1,2.235928535E0,6.070096493E0,2.207478762E0
2.502727541E1,2.610382557E0,6.699434280E0,2.490797043E0
2.504716520E1,1.999165535E0,5.572508335E0,3.687943697E0
2.506710557E1,1.917272568E0,3.470511913E0,3.808127880E0
2.508694083E1,2.362063885E0,2.919560432E0,3.269549847E0
2.510684005E1,3.034807205E0,3.723371506E0,2.039026499E0
2.512671484E1,3.506545544E0,3.525465012E0,1.336435795E0
2.514662546E1,3.479815960E0,3.028447151E0,2.086606741E0
2.516650135E1,2.994468927E0,2.033370972E0,2.339474201E0
2.518641447E1,2.726507902E0,1.267130375E0,1.489990234E0
2.520625578E1,2.550670624E0,1.469760418E0,8.216929436E-1
2.522614979E1,2.431283951E0,1.570940971E0,8.942792416E-1
2.524607932E1,2.223809242E0,1.298043251E0,1.314654112E0
2.526593401E1,2.158774376E0,1.086709023E0,1.177579880E0
2.528583203E1,2.237285137E0,1.177172661E0,7.441961765E-1
2.530570968E1,2.356367111E0,1.418955326E0,3.239798546E-1
2.532559833E1,2.424299479E0,1.416972160E0,3.630292416E-1
2.534550609E1,1.975213051E0,1.089140892E0,4.805524349E-1
2.536539322E1,1.380730152E0,9.001035690E-1,4.439742565E-1
2.538528635E1,9.669981003E-1,7.077622414E-1,3.385703564E-1
2.540519255E1,7.626419067E-1,4.864602089E-1,1.491301060E-1
2.542510046E1,5.681004524E-1,3.560428619E-1,2.413129807E-2
2.544494031E1,2.821025848E-1,2.418937683E-1,1.412177086E-2
2.546485796E1,5.025386810E-3,1.464562416E-1,1.122493744E-1
2.548472437E1,-3.032159805E-2,1.140551567E-1,1.712396145E-1
2.550465307E1,5.506992340E-3,1.212530136E-1,1.299855709E-1
2.552454312E1,-1.124114990E-1,3.333296776E-1,7.272481918E-3
2.554441114E1,-1.628174782E-1,4.167089462E-1,7.964897156E-2
2.556430854E1,-1.140031815E-1,2.747468948E-1,6.093049049E-2
2.558418755E1,-9.025096893E-2,1.144423485E-1,-2.106697559E-1
2.560409494E1,-5.700254440E-2,9.531593323E-2,-2.585825920E-1
2.562403526E1,-9.531068802E-2,5.759525299E-2,-1.878452301E-1
2.564386979E1,-2.122950554E-1,-1.974868774E-2,-1.673231125E-1
2.566376354E1,-3.017892838E-1,-5.989217758E-2,-7.384777069E-3
2.568365687E1,-2.707514763E-1,-1.429290771E-1,6.794214249E-3
2.570351812E1,-1.755642891E-1,-1.670775414E-1,2.936840057E-3
2.572340322E1,-6.651401520E-2,-1.402211189E-1,9.516048431E-2
2.574331130E1,2.730369568E-3,-1.532411575E-1,3.700399399E-2
2.576321150E1,-4.346704483E-2,-1.087512970E-1,2.937698364E-2
2.578310296E1,-1.605768204E-1,3.211927414E-2,1.035084724E-1
2.580302494E1,-2.427535057E-1,4.123830795E-2,8.919739723E-2
2.582288026E1,-2.089991570E-1,-1.467800140E-2,3.086376190E-2
2.584276385E1,-2.357077599E-1,-5.993223190E-2,-2.179384232E-3
2.586264718E1,-2.960367203E-1,-1.058197021E-2,-6.303334236E-2
2.588259176E1,-2.847838402E-1,-3.479099274E-2,-7.139492035E-2
2.590244953E1,-2.350134850E-1,-2.809653282E-1,-2.424967289E-1
2.592232541E1,-1.064395905E-1,-3.451209068E-1,-3.637704849E-1
2.594222114E1,1.274933815E-1,-2.667722702E-1,-3.922483921E-1
2.596209812E1,2.868165970E-1,-1.964511871E-1,-3.655841351E-1
2.598203630E1,2.723894119E-1,-5.487537384E-2,-1.779558659E-1
2.600187390E1,1.629014015E-1,5.161285400E-2,8.611965179E-2
2.602176328E1,5.011796951E-2,7.470607758E-2,2.660782337E-1
2.604168473E1,2.985095978E-2,3.871154785E-2,3.980767727E-1
2.606156057E1,5.502223969E-2,-1.235961914E-3,3.897309303E-1
2.608145869E1,9.613990784E-2,3.497934341E-2,3.296389580E-1
2.610134624E1,1.191205978E-1,6.623649597E-2,2.600626945E-1
2.612125453E1,7.354497910E-2,-6.281757355E-2,2.082259655E-1
2.614112541E1,-4.141616821E-2,-1.503152847E-1,1.975939274E-1
2.616102526E1,-1.578192711E-1,-1.381611824E-1,1.080410480E-1
2.618089505E1,-2.023177147E-1,-5.299568176E-2,-9.956622124E-2
2.620077760E1,-1.070890427E-1,6.639051437E-2,-1.383380890E-1
2.622069203E1,5.293464661E-2,1.404113770E-1,-6.418347359E-2
2.624056291E1,2.153792381E-1,1.972880363E-1,-5.391836166E-3
2.626044057E1,2.837986946E-1,2.576885223E-1,8.214330673E-2
2.628035218E1,3.222198486E-1,2.875404358E-1,5.143785477E-2
2.630024187E1,3.502979279E-1,2.725315094E-1,1.013295650E-1
2.632013713E1,4.932789803E-1,2.429261208E-1,2.376480103E-1
2.634005114E1,7.410817146E-1,9.134817123E-2,3.153963089E-1
2.635992390E1,9.342694283E-1,-1.071777344E-1,3.772821426E-1
2.637982426E1,1.070172310E0,-2.271723747E-1,4.549853802E-1
2.639971192E1,1.279506207E0,-3.100171089E-1,5.560326576E-1
2.641958426E1,1.592794418E0,-5.219216347E-1,5.474305153E-1
2.643945458E1,2.179203987E0,-1.102897167E0,5.214316845E-1
2.645937479E1,2.966199160E0,-2.078110695E0,7.757377625E-1
2.647924468E1,3.372130394E0,-3.326767921E0,8.220350742E-1
2.649913744E1,3.358689308E0,-3.841922998E0,7.122170925E-1
2.651906994E1,2.824478626E0,-2.716823101E0,1.533067226E0
2.653896697E1,2.990023613E0,1.849931240E0,3.562602043E0
2.655882598E1,3.318499088E0,1.268972874E1,7.457988262E0
2.657871942E1,1.628564835E0,3.223154449E1,1.222423935E1
2.659858244E1,-2.911648750E0,4.440851212E1,1.169778061E1
2.661848255E1,-4.812485218E0,3.360122299E1,7.994438171E0
2.663838276E1,-5.953726768E-1,2.739500046E1,3.902129173E0
2.665826916E1,4.375160217E0,2.229907036E1,-2.184906960E0
2.667814604E1,7.685310364E0,1.439949512E1,-5.470571518E0
2.669806526E1,6.720768929E0,3.018807173E0,-6.980345249E0
2.671791739E1,4.545924664E0,-1.333239651E1,-7.070233345E0
2.673781499E1,5.248858452E0,-3.259773636E1,-6.968016148E0
2.675769979E1,7.046512604E0,-6.155691147E1,-7.430003643E0
2.677761380E1,7.806221962E0,-6.555094910E1,-8.114507675E0
2.679750703E1,6.691756725E0,-3.240403366E1,-9.369737625E0
2.681736437E1,-2.158465385E-1,7.566503286E-1,-5.586812019E0
2.683726859E1,4.731568336E0,-8.084287643E-1,-3.634816170E0
2.685725083E1,8.470136642E0,-1.567405224E1,-2.866363525E-1
2.687708963E1,4.153066158E0,-1.789203644E1,-7.402324677E-1
2.689694468E1,3.423722982E0,-1.591338825E1,-1.226272583E-1
2.691685484E1,2.191907644E0,-1.422455120E1,-6.303257942E-1
2.693670895E1,5.126452446E-1,-1.057143116E1,-1.485942364E0
2.695662781E1,-4.284839630E-1,-5.724779129E0,-1.942792892E0
2.697650526E1,-8.267464638E-1,-2.034663200E0,-1.385122776E0
2.699640697E1,-1.005719662E0,5.116293430E-1,-5.632791519E-1
2.701628838E1,-8.925943375E-1,3.174826384E0,-2.442145348E-1
2.703615770E1,-1.610021591E-1,5.513425350E0,-8.970668316E-1
2.705608869E1,8.817591667E-1,7.082284927E0,-9.813964367E-1
2.707597890E1,9.162559509E-1,7.947029591E0,1.643301725E0
2.709586062E1,1.434435844E-1,7.913689137E0,3.784353256E0
2.711572958E1,7.769284248E-1,7.782686234E0,3.020629644E0
2.713564421E1,1.491763115E0,6.837917328E0,1.762838960E0
2.715552979E1,9.142370224E-1,5.380610943E0,2.594084024E0
2.717539604E1,2.114133835E-1,3.895068169E0,3.617462158E0
2.719531348E1,8.904876709E-1,3.473311901E0,3.148903370E0
2.721519036E1,2.090013027E0,3.426732063E0,1.753379941E0
2.723509848E1,2.930077076E0,2.694725513E0,7.440268993E-1
2.725496953E1,3.323016167E0,2.378160477E0,1.152450323E0
2.727485994E1,3.667544127E0,2.158750057E0,1.379920125E0
2.729472765E1,4.049902916E0,1.787899494E0,1.039769888E0
2.731464598E1,3.884635925E0,1.326913357E0,5.695414543E-1
2.733453598E1,3.112075090E0,9.722971916E-1,5.426598787E-1
2.735442187E1,2.486101627E0,1.276212215E0,7.793860435E-1
2.737429374E1,1.852825642E0,1.595213890E0,7.267497778E-1
2.739418572E1,1.412639618E0,1.460348129E0,9.423956871E-1
2.741409734E1,1.231570244E0,1.076366425E0,1.172888994E0
2.743396937E1,8.073606491E-1,8.085188866E-1,7.902270555E-1
2.745384437E1,3.527669907E-1,1.013403416E0,4.545480013E-1
2.747376411E1,2.121438980E-1,1.175837040E0,4.324914217E-1
2.749366828E1,3.201174736E-1,9.052886963E-1,3.060257435E-1
2.751355536E1,2.086706161E-1,5.515594482E-1,-1.287138462E-2
2.753341958E1,1.692056656E-2,4.474759102E-1,-1.121702194E-1
2.755330781E1,9.103250504E-2,3.824958801E-1,-1.172883511E-1
2.757322932E1,2.818017006E-1,2.290215492E-1,-1.337909698E-1
2.759310499E1,1.712794304E-1,-4.003047943E-3,-1.375627518E-2
2.761301359E1,-2.219448090E-1,-2.778320312E-1,2.021944523E-1
2.763288317E1,-2.386369705E-1,-4.114975929E-1,2.812955379E-1
2.765277426E1,8.225965500E-2,-2.943911552E-1,1.402038336E-1
2.767268026E1,9.998989105E-2,-8.111667633E-2,-1.938034296E-1
2.769256911E1,-3.601884842E-1,5.850267410E-2,-2.410368919E-1
2.771245651E1,-6.728897095E-1,4.387521744E-2,-2.176945210E-1
2.773235015E1,-6.139812469E-1,3.203296661E-2,-2.616363764E-1
2.775220656E1,-4.327464104E-1,1.492595673E-2,-2.612967491E-1
2.777209776E1,-4.080376625E-1,6.603574753E-2,-1.976149082E-1
2.779204322E1,-4.701189995E-1,6.966257095E-2,-1.579014063E-1
2.781190614E1,-5.102319717E-1,5.502939224E-2,-1.808922291E-1
2.783178406E1,-3.514161110E-1,1.136102676E-1,-1.207729578E-1
2.785168437E1,-1.771559715E-1,5.889892578E-2,-7.382082939E-2
2.787158203E1,-1.253685951E-1,-7.878017426E-2,3.179454803E-2
2.789144749E1,-1.879177094E-1,-2.127304077E-1,3.572154045E-2
2.791134572E1,-1.450309753E-1,-1.280012131E-1,-1.276278496E-2
2.793123322E1,-2.648591995E-2,7.143640518E-2,4.326534271E-2
2.795115177E1,-5.480527878E-2,5.393409729E-2,1.031365395E-1
2.797104958E1,-7.230186462E-2,-8.967638016E-2,3.366494179E-2
2.799088890E1,-9.602689743E-2,-1.398739815E-1,-8.319258690E-2
2.801080718E1,-1.930298805E-1,-4.869937897E-3,-1.140854359E-1
2.803068197E1,-2.900900841E-1,5.557584763E-2,3.332686424E-2
2.805059307E1,-2.103104591E-1,-1.056060791E-1,4.712915421E-2
2.807048265E1,-3.560018539E-2,-2.250118256E-1,-7.871627808E-3
2.809035593E1,-5.561065674E-2,-2.518000603E-1,-1.311025620E-1
2.811024343E1,-1.812939644E-1,-1.957201958E-1,-1.360504627E-1
2.813012328E1,-1.684007645E-1,-1.757769585E-1,-2.566289902E-2
2.815004390E1,-7.817935944E-2,-2.439961433E-1,7.949256897E-2
2.816994760E1,-1.189641953E-1,-2.454743385E-1,9.530544281E-3
2.818980161E1,-1.679601669E-1,-1.009511948E-1,-8.229875565E-2
2.820972869E1,6.805181503E-2,-1.994581223E-1,-4.256105423E-2
2.822959890E1,5.889067650E-1,-5.110492706E-1,-6.109118462E-2
2.824946593E1,1.238905430E0,-8.126683235E-1,-3.140307665E-1
2.826936453E1,1.634486675E0,-1.180902004E0,-9.143736362E-1
2.828924624E1,1.774503231E0,-1.390995502E0,-1.195365667E0
2.830913453E1,1.895242691E0,-1.593023300E0,-1.153281331E0
2.832903489E1,1.873311996E0,-1.740686893E0,-7.273004055E-1
2.834892447E1,1.503750324E0,-1.613910198E0,1.759464741E-1
2.836881718E1,1.509724140E0,-1.517071724E0,1.053741336E0
2.838872255E1,2.048331261E0,-1.468246937E0,1.424797535E0
2.840859640E1,2.236364841E0,-1.422178745E0,1.540721059E0
2.842848999E1,2.265181065E0,-8.840761185E-1,1.995562315E0
2.844837109E1,3.290079594E0,1.004031181E0,2.555159807E0
2.846828578E1,4.837723255E0,6.197322845E0,3.582835436E0
2.848817619E1,6.370188236E0,1.819758987E1,5.573991776E0
2.850804760E1,6.558687210E0,3.133470726E1,5.095355988E0
2.852793416E1,2.382718086E0,3.793698120E1,3.624077559E0
2.854781088E1,-1.999748230E0,3.604751587E1,2.530852795E0
2.856773140E1,-3.890115738E0,3.159672356E1,1.272590995E0
2.858761343E1,-4.205572128E0,2.693521881E1,-1.403893590E0
2.860751171E1,-1.944708824E0,2.021053314E1,-5.900749207E0
2.862740161E1,4.021538734E0,1.067571831E1,-1.032872581E1
2.864728135E1,7.893813133E0,-7.929658890E0,-1.508170700E1
2.866719291E1,7.011072636E0,-2.243100929E1,-1.078816605E1
2.868709994E1,5.688786983E0,-3.917462540E1,-2.920030594E0
2.870696380E1,9.173889160E0,-5.764558411E1,-4.036512852E0
2.872685979E1,1.520628548E1,-5.370206833E1,-5.917295456E0
2.874673666E1,1.236547756E1,-2.696183014E1,-5.174017906E0
2.876660395E1,1.721604824E0,-2.193493605E0,-1.085280228E1
2.878651640E1,2.205339909E0,1.020556450E0,-7.224207878E0
2.880641229E1,7.121375084E0,-1.136164570E1,7.747030258E-1
2.882629426E1,5.030376434E0,-1.731885147E1,1.507588387E0
2.884616953E1,5.036738873E0,-1.628973389E1,8.850002289E-2
2.886608020E1,4.506431103E0,-1.570157528E1,-8.441047668E-1
2.888597505E1,2.328666210E0,-1.363711071E1,-9.074950218E-1
2.890586630E1,2.536787987E-1,-9.195171356E0,-7.472782135E-1
2.892576609E1,2.034778595E-1,-4.098080158E0,4.044713974E-1
2.894561739E1,6.891655922E-1,-2.178440094E-1,9.288587570E-1
2.896553104E1,5.673489571E-1,2.827927113E0,-1.108280182E0
2.898540468E1,9.462442398E-1,5.297431469E0,-3.252201796E0
2.900531338E1,1.494198322E0,7.193242073E0,-1.859844685E0
2.902521359E1,9.922575951E-1,8.006177902E0,1.746294022E0
2.904508676E1,-9.254932404E-2,7.752738476E0,3.258974314E0
2.906495906E1,2.921457291E-1,7.428673744E0,2.125717163E0
2.908486062E1,1.466177464E0,7.607088566E0,1.685840607E0
2.910474890E1,1.612796307E0,7.273644924E0,2.926188946E0
2.912462395E1,4.926443100E-1,5.725607395E0,4.053018093E0
2.914452421E1,4.446506500E-1,4.001483440E0,3.724667072E0
2.916441041E1,1.677685261E0,3.280724525E0,2.377403975E0
2.918430661E1,2.802105665E0,2.728122711E0,1.215973377E0
2.920418692E1,3.422075748E0,1.992994308E0,8.917436600E-1
2.922410223E1,3.684970379E0,8.686699867E-1,1.321008563E0
2.924399400E1,3.658906460E0,-7.984590530E-2,2.449065685E0
2.926385458E1,3.304014683E0,6.263427734E-1,2.530472755E0
2.928377390E1,2.991958857E0,1.512320042E0,1.214887619E0
2.930364031E1,2.690317869E0,1.715682507E0,-1.605677605E-2
2.932352322E1,2.351694822E0,1.928867817E0,-1.663303375E-2
2.934344203E1,2.089148998E0,2.075099945E0,2.455011606E-1
2.936331822E1,1.911147118E0,1.882057667E0,9.446442127E-2
2.938326104E1,1.636036873E0,1.513463020E0,-2.557637095E-1
2.940311682E1,1.207171917E0,1.124283791E0,-6.443870068E-2
2.942303421E1,8.180408478E-1,6.819477081E-1,2.064379454E-1
2.944288062E1,6.765980721E-1,7.216453552E-1,3.460642099E-1
2.946279421E1,6.316032410E-1,9.605555534E-1,3.122942448E-1
2.948266239E1,6.256780624E-1,7.720117569E-1,5.513930321E-2
2.950255197E1,4.929056168E-1,5.001759529E-1,3.560340405E-2
2.952243515E1,3.453793526E-1,2.258901596E-1,1.832150221E-1
2.954233322E1,1.347503662E-1,-1.071023941E-2,9.339964390E-2
2.956222411E1,-1.320314407E-1,-1.662487984E-1,-5.079472065E-2
2.958212156E1,-3.243789673E-1,-6.608629227E-2,-1.734364033E-2
2.960203802E1,-3.337326050E-1,-1.210680008E-1,-1.196611524E-1
2.962190046E1,-2.186169624E-1,-2.055706978E-1,-2.276759148E-1
2.964178093E1,-1.761569977E-1,-2.031326294E-1,-2.127314806E-1
2.966167499E1,-1.605310440E-1,-6.037139893E-2,-3.543169498E-1
2.968157072E1,-1.569018364E-1,3.005566597E-1,-4.636600912E-1
2.970144739E1,-3.851652145E-1,3.529257774E-1,-3.145021498E-1
2.972133864E1,-6.214466095E-1,2.115592957E-1,-1.055192947E-1
2.974124703E1,-8.361406326E-1,3.251457214E-2,-1.469350159E-1
2.976115953E1,-8.658766747E-1,-3.976964951E-2,-2.873899341E-1
2.978105692E1,-7.143783569E-1,-8.072614670E-2,-3.932615817E-1
2.980090020E1,-5.604767799E-1,-1.046504974E-1,-4.615392089E-1
2.982080249E1,-5.482106209E-1,-1.302490234E-1,-4.927060008E-1
2.984070973E1,-7.216815948E-1,-2.549629211E-1,-4.900344014E-1
2.986059473E1,-7.024116516E-1,-2.695379257E-1,-3.492026329E-1
2.988048187E1,-3.247141838E-1,-3.005180359E-1,-3.317995667E-1
2.990037416E1,3.947210312E-2,-2.883734703E-1,-4.325491786E-1
2.992025041E1,1.268959045E-1,-2.086172104E-1,-4.703522027E-1
2.994015374E1,-1.053905487E-1,-1.420211792E-1,-3.680212200E-1
2.996006015E1,-3.702058792E-1,-7.526683807E-2,-1.578874886E-1
2.997994130E1,-5.372047424E-1,-8.116769791E-2,-6.168490648E-2
2.999980145E1,-3.819718361E-1,-1.528787613E-1,1.679956913E-2
3.001969635E1,-1.403851509E-1,-2.515826225E-1,6.206268072E-2
3.003961296E1,-2.243394852E-1,-3.087258339E-1,9.374880791E-2
3.005949598E1,-3.549375534E-1,-3.308033943E-1,2.955251932E-2
3.007937645E1,-2.244939804E-1,-2.138781548E-1,-8.856654167E-3
3.009926296E1,-3.599739075E-2,-1.311135292E-1,-3.216624260E-2
3.011916828E1,-1.927471161E-2,-1.101622581E-1,-9.901469946E-2
3.013906026E1,4.606294632E-2,1.677989960E-2,-1.428796053E-1
3.015895208E1,2.609815598E-1,4.859924316E-2,-2.198393941E-1
3.017882114E1,4.094023705E-1,1.591682434E-3,-3.811650574E-1
3.019870499E1,1.508946419E-1,6.422042847E-3,-3.829799592E-1
3.021862390E1,-2.429275513E-1,3.210921288E-1,-4.214584827E-3
3.023849833E1,-3.099002838E-1,3.725271225E-1,2.044205666E-1
3.025836468E1,-1.214842796E-1,1.749720573E-1,2.003444433E-1
3.027826218E1,7.269239426E-2,4.178524017E-2,1.485358477E-1
3.029817869E1,3.834123611E-1,3.298664093E-2,2.494432330E-1
3.031807890E1,8.838315010E-1,-7.923173904E-2,3.238412738E-1
3.033795953E1,1.367011547E0,-3.228816986E-1,4.393638372E-1
3.035785848E1,1.744045734E0,-4.982814789E-1,6.898787022E-1
3.037773223E1,2.159558773E0,-6.786365509E-1,8.574453592E-1
3.039763182E1,2.793204784E0,-7.998733521E-1,1.046502829E0
3.041752609E1,3.547893524E0,-9.044537544E-1,1.257329822E0
3.043739718E1,4.435670853E0,-1.170814514E0,1.426512837E0
3.045728770E1,5.388057709E0,-1.459025860E0,1.471969128E0
3.047718656E1,6.277283669E0,-1.045721054E0,6.307423115E-1
3.049712052E1,7.419079304E0,1.280435562E0,-8.892703056E-2
3.051706166E1,8.815515518E0,5.644004822E0,6.747651100E-2
3.053686364E1,8.482423782E0,1.317694378E1,8.294408321E-1
3.055675916E1,5.745995522E0,2.613333702E1,2.288489342E0
3.057662588E1,-7.093906403E-1,3.243866348E1,3.626906872E0
3.059650411E1,-8.809576035E0,3.014255524E1,2.271296978E0
3.061640916E1,-1.273337936E1,2.693229294E1,7.914731503E-1
3.063632192E1,-9.666761398E0,2.703825378E1,1.361187458E0
3.065618229E1,-1.645038605E0,2.492869186E1,-1.143183708E0
3.067609052E1,3.581061602E0,1.466055489E1,-4.629554749E0
3.069599171E1,2.936261177E0,2.035186291E0,-6.458952904E0
3.071584588E1,4.501228333E-1,-1.075466442E1,-7.519649982E0
3.073575369E1,4.608690739E-1,-2.053933334E1,-7.441014290E0
3.075566234E1,4.430006504E0,-2.983798790E1,-1.107682037E1
3.077554124E1,9.598794937E0,-4.559738922E1,-1.062157249E1
3.079542052E1,1.055029678E1,-4.659012222E1,-2.587189674E0
3.081531822E1,7.260104179E0,-3.014917183E1,-2.530059338E0
3.083522109E1,1.703012109E0,-1.470684719E1,-1.058528423E1
3.085511650E1,-8.516216278E-2,-2.358496189E0,-9.587548256E0
3.087500494E1,3.748463392E0,-5.462445259E0,-3.581991673E0
3.089488265E1,5.760345459E0,-1.227515602E1,-1.733439445E0
3.091475020E1,4.874302387E0,-1.363121510E1,-2.366476059E0
3.093467046E1,4.634290695E0,-1.267251205E1,-2.270261765E0
3.095452192E1,3.975572824E0,-1.450879192E1,-1.802694798E0
3.097444307E1,2.808200836E0,-1.354361534E1,-2.573251724E-1
3.099433932E1,1.536393166E0,-9.396175385E0,7.570047379E-1
3.101420265E1,6.609096527E-1,-5.709212303E0,6.030559540E-3
3.103412369E1,6.112046242E-1,-2.878325224E0,4.970393181E-1
3.105406583E1,6.071405411E-1,-3.843152523E-1,1.345104218E0
3.107389234E1,4.651174545E-1,1.025541782E0,-1.950840950E-1
3.109376307E1,1.671077251E0,2.925550938E0,-1.946187973E0
3.111369453E1,1.860206604E0,5.673902512E0,-1.084493637E0
3.113353213E1,7.575359344E-1,7.806844711E0,1.506316900E0
3.115342937E1,-3.006186485E-1,8.163790703E0,3.187500477E0
3.117333854E1,-1.500859261E-1,7.457795620E0,2.840992212E0
3.119325739E1,2.061028481E-1,6.589243889E0,1.836009622E0
3.121316729E1,6.856331825E-1,6.915939808E0,1.792393446E0
3.123304369E1,1.313249111E0,7.020253181E0,1.413715363E0
3.125291416E1,2.200084209E0,6.571188450E0,9.289873838E-1
3.127280093E1,3.017413616E0,5.706421375E0,6.319970489E-1
3.129267223E1,2.758111000E0,4.750816822E0,6.911855936E-1
3.131256833E1,2.774894238E0,3.867409706E0,6.888412833E-1
3.133247062E1,3.230354548E0,2.745975018E0,4.321815372E-1
3.135235145E1,3.501898766E0,2.101376534E0,5.702024102E-1
3.137222473E1,3.389952183E0,1.836564064E0,8.756855130E-1
3.139211874E1,2.820791483E0,1.750604630E0,1.305991292E0
3.141204286E1,2.589445591E0,1.425654411E0,1.858024836E0
3.143192276E1,2.768760443E0,8.072376251E-1,2.147596359E0
3.145181880E1,2.655997276E0,6.056900024E-1,1.944996834E0
3.147170218E1,2.262566566E0,1.005525112E0,1.193638444E0
3.149159645E1,1.877484322E0,1.348992825E0,4.513232708E-1
3.151147541E1,1.496349812E0,1.469777584E0,1.509064436E-1
3.153136135E1,1.116122723E0,1.343539238E0,2.733445168E-1
3.155126526E1,6.690669060E-1,1.106642723E0,3.087903261E-1
3.157117380E1,1.326999664E-1,6.756482124E-1,1.318113804E-1
3.159109218E1,-1.832652092E-1,3.911266327E-1,8.827960491E-2
3.161094151E1,-2.006993294E-1,1.018271446E-1,2.669755220E-1
3.163082333E1,-2.245779037E-1,-2.385373116E-1,2.568775415E-1
3.165072656E1,-5.052871704E-1,-3.924932480E-1,1.113662720E-1
3.167058901E1,-6.632623672E-1,-4.076905251E-1,7.957768440E-2
3.169048812E1,-6.509556770E-1,-4.049887657E-1,-4.492521286E-3
3.171039484E1,-5.049996376E-1,-1.893014908E-1,-2.821564674E-3
3.173028291E1,-4.624071121E-1,2.698135376E-2,-5.725264549E-3
3.175014078E1,-3.876829147E-1,1.423602104E-1,1.555027962E-1
3.177004765E1,-1.765789986E-1,-4.310131073E-3,1.394273043E-1
3.178994708E1,-2.015447617E-2,-2.134690285E-1,-1.205657721E-1
3.180980979E1,4.352140427E-2,-3.145842552E-1,-2.862832546E-1
3.182971921E1,1.622724533E-2,-4.413881302E-1,-2.623416185E-1
3.184962484E1,7.169151306E-2,-4.316616058E-1,-2.288067341E-2
3.186949473E1,-8.096694946E-4,-4.257502556E-1,2.974724770E-2
3.188938895E1,-1.658020020E-1,-2.975621223E-1,1.222193241E-2
3.190928364E1,-1.885724068E-1,-8.235359192E-2,4.045665264E-2
3.192915494E1,-1.824636459E-1,5.219459534E-2,7.554137707E-2
3.194906854E1,-3.511838913E-1,1.097154617E-1,1.410231590E-1
3.196896057E1,-5.018496513E-1,1.627206802E-1,3.479564190E-1
3.198885312E1,-5.735855103E-1,7.180309296E-2,2.579419613E-1
3.200871562E1,-3.964595795E-1,2.159452438E-2,-1.600825787E-2
3.202863317E1,-2.633833885E-1,5.212306976E-3,-8.850538731E-2
3.204851541E1,-2.413263321E-1,-8.237171173E-2,-4.799830914E-2
3.206839291E1,-2.261338234E-1,-2.574205399E-1,-1.562756300E-1
3.208828645E1,-1.753368378E-1,-4.000988007E-1,-3.683187962E-1
3.210815666E1,8.940219879E-3,-1.809444427E-1,-4.431304932E-1
3.212805739E1,3.923330307E-1,7.364988327E-2,-4.567540884E-1
3.214796703E1,6.977334023E-1,8.206939697E-2,-5.363016129E-1
3.216786463E1,7.549319267E-1,1.651988029E-1,-3.616552949E-1
3.218775630E1,8.142499924E-1,2.603592873E-1,-7.835924625E-2
3.220761682E1,9.023499489E-1,1.930890083E-1,3.327488899E-2
3.222753005E1,1.009573460E0,2.401862144E-1,2.213759422E-1
3.224742328E1,1.002662182E0,3.262462616E-1,5.821532011E-1
3.226731942E1,1.047457218E0,2.562823296E-1,9.325584769E-1
3.228722140E1,1.252286434E0,2.353348732E-1,1.045838714E0
3.230710026E1,1.627476692E0,4.694781303E-1,1.411270142E0
3.232702156E1,2.164891720E0,7.785391808E-1,1.863740206E0
3.234687708E1,2.692228794E0,8.793478012E-1,2.002007008E0
3.236674104E1,3.177932978E0,8.367447853E-1,1.575655699E0
3.238664822E1,3.758476496E0,1.332664490E0,9.003921747E-1
3.240654635E1,4.338069439E0,2.495513916E0,9.283314943E-1
3.242643510E1,4.711913109E0,4.311210155E0,1.355816960E0
3.244632499E1,4.811079025E0,7.126015186E0,1.709622145E0
3.246617921E1,4.686702728E0,1.316734314E1,2.348308086E0
3.248607786E1,3.894989729E0,2.139950562E1,3.918071985E0
3.250601197E1,1.520228386E0,2.589719391E1,5.419911861E0
3.252588932E1,-5.941972733E-1,2.562583160E1,5.276641846E0
3.254574614E1,1.129292011E0,2.557794189E1,3.112287045E0
3.256565890E1,5.091775417E0,2.387985992E1,-7.446112633E-1
3.258554380E1,8.072381020E0,1.552985382E1,-4.048236847E0
3.260542786E1,7.770102024E0,3.864032745E0,-5.841419220E0
3.262532661E1,6.676166534E0,-8.870998383E0,-6.661734104E0
3.264521619E1,4.913284302E0,-2.386774063E1,-5.124226570E0
3.266512255E1,4.352473736E0,-3.502963638E1,-2.892044544E0
3.268502864E1,4.955470085E0,-4.920435715E1,-4.299908638E0
3.270487249E1,5.334525108E0,-5.364017105E1,-3.291358471E0
3.272478770E1,6.346461773E0,-2.642447281E1,-2.731939793E0
3.274468026E1,3.948342502E-1,-2.696319580E0,-8.766927719E0
3.276456703E1,4.472900391E0,-8.399081230E-2,-9.073792458E0
3.278444249E1,8.912768364E0,-1.136015129E1,-1.851568222E0
3.280434015E1,5.505326271E0,-1.632941055E1,1.596536636E-1
3.282421119E1,3.620528221E0,-1.379270077E1,-1.435463905E0
3.284412348E1,4.068214417E0,-1.272788429E1,-1.420492649E0
3.286404380E1,3.465540886E0,-1.318712425E1,-1.733982563E0
3.288389453E1,1.500026703E0,-1.170507526E1,-2.546826363E0
3.290378374E1,-4.287815094E-1,-7.824727535E0,-3.187221050E0
3.292368249E1,-1.088400841E0,-3.703424454E0,-1.373688221E0
3.294355630E1,-1.094129086E0,-3.741824627E-2,1.325215340E0
3.296347359E1,-9.639286995E-1,2.498064041E0,9.894804955E-1
3.298335484E1,-3.493547440E-2,3.448130608E0,-6.392059326E-1
3.300325426E1,1.514889717E0,5.081732750E0,-2.345016003E-1
3.302313432E1,3.523378372E-1,6.764752865E0,3.466394186E0
3.304306765E1,-1.127958298E0,7.322998524E0,6.414424896E0
3.306290687E1,1.415872574E-2,6.418070316E0,5.122659683E0
3.308281348E1,1.761151791E0,5.303445816E0,1.958214521E0
3.310269437E1,2.732838631E0,4.619279861E0,9.904369116E-1
3.312258869E1,2.730806351E0,4.721201897E0,2.428835869E0
3.314247999E1,2.822504044E0,4.753815174E0,2.727179527E0
3.316235171E1,3.467923641E0,4.114781857E0,1.336958289E0
3.318226723E1,4.188042641E0,3.287586689E0,-1.104339361E-1
3.320212661E1,4.020820618E0,2.779775620E0,-4.440267086E-1
3.322205182E1,3.634374619E0,2.576382160E0,9.264254570E-2
3.324191239E1,3.626029015E0,2.782272816E0,4.402203560E-1
3.326179385E1,3.503124714E0,2.711345196E0,4.090163708E-1
3.328171942E1,3.120309591E0,2.063776970E0,6.978118420E-1
3.330158364E1,2.604721308E0,1.032297611E0,1.459942102E0
3.332149062E1,2.605056286E0,7.943158150E-1,2.111864090E0
3.334138218E1,2.806249380E0,1.176109314E0,1.722257137E0
3.336126708E1,2.753139973E0,1.377777100E0,8.412532806E-1
3.338117900E1,2.134901285E0,1.182245731E0,4.073300362E-1
3.340108765E1,1.493535995E0,1.072653770E0,3.005580902E-1
3.342092833E1,1.222812176E0,1.113440514E0,7.009649277E-2
3.344082083E1,9.558291435E-1,1.148668289E0,-3.258287907E-2
3.346070822E1,4.937291145E-1,1.016514778E0,1.493872404E-1
3.348060526E1,1.106214523E-1,7.866983414E-1,4.150011539E-1
3.350047906E1,-1.661777496E-2,5.735836029E-1,4.403575659E-1
3.352039145E1,-1.025424004E-1,3.929004669E-1,3.958538771E-1
3.354026312E1,-1.640863419E-1,3.910503387E-1,5.041158199E-1
3.356018484E1,-1.692590714E-1,6.793708801E-1,3.928287029E-1
3.358004822E1,-1.142492294E-1,7.004046440E-1,2.513282299E-1
3.359994812E1,7.120704651E-2,5.655589104E-1,3.481025696E-1
3.361981932E1,2.084980011E-1,3.167591095E-1,2.435774803E-1
3.363972541E1,1.271510124E-1,3.546142578E-2,-7.314205170E-3
3.365962859E1,-1.241841316E-1,-7.267236710E-2,-1.393331289E-1
3.367949989E1,-2.304625511E-1,-6.466293335E-2,-1.413253546E-1
3.369941150E1,-2.621402740E-1,-6.980323792E-2,-1.371148825E-1
3.371930317E1,-3.107504845E-1,-1.227631569E-1,-1.438100338E-1
3.373916718E1,-4.326267242E-1,-1.910119057E-1,-1.848974228E-1
3.375910947E1,-5.237770081E-1,-1.791911125E-1,-5.000209808E-2
3.377895432E1,-5.302906036E-1,-1.823492050E-1,-9.956121445E-3
3.379884161E1,-5.580496788E-1,-2.015757561E-1,-1.076951027E-1
3.381875088E1,-6.328244209E-1,-2.189540863E-1,-5.971932411E-2
3.383863953E1,-7.233328819E-1,-2.533192635E-1,1.535863876E-1
3.385854255E1,-8.529005051E-1,-3.559155464E-1,1.387166977E-1
3.387842666E1,-8.725776672E-1,-4.191937447E-1,2.186703682E-2
3.389830010E1,-7.298488617E-1,-3.899955750E-1,1.785993576E-2
3.391818374E1,-5.948233604E-1,-3.675475121E-1,1.162714958E-1
3.393807526E1,-4.545516968E-1,-3.903751373E-1,1.026268005E-1
3.395798838E1,-3.540096283E-1,-4.742922783E-1,-1.247665882E-1
3.397787249E1,-3.619947433E-1,-4.056057930E-1,-2.085757256E-1
3.399775124E1,-4.174299240E-1,-2.950954437E-1,-5.043601990E-2
3.401764979E1,-4.193558693E-1,-2.804207802E-1,1.144425869E-1
3.403753588E1,-3.277754784E-1,-2.699656487E-1,4.483485222E-2
3.405742343E1,-3.282828331E-1,-2.828516960E-1,-2.019517422E-1
3.407730958E1,-3.010644913E-1,-2.407469749E-1,-2.527153492E-1
3.409723541E1,-1.673808098E-1,-1.822223663E-1,-2.211341858E-1
3.411710932E1,-4.992961884E-2,-1.815290451E-1,-1.978545189E-1
3.413702619E1,-1.193985939E-1,-1.630287170E-1,-2.386460304E-1
3.415688593E1,-2.221155167E-1,3.790950775E-2,-3.198559284E-1
3.417676916E1,-8.575391769E-2,3.306083679E-1,-2.376728058E-1
3.419668078E1,2.827367783E-1,3.441195488E-1,-1.227233410E-1
3.421656062E1,6.855440140E-1,2.877850533E-1,7.321000099E-2
3.423642697E1,1.012049198E0,3.663492203E-1,2.797684669E-1
3.425633130E1,1.243421555E0,2.966933250E-1,3.726792336E-1
3.427620328E1,1.469083309E0,5.485153198E-2,3.184199333E-1
3.429609416E1,1.884411335E0,-1.059832573E-1,1.033785343E-1
3.431602937E1,2.545141697E0,-1.126556396E-1,-1.914651394E-1
3.433588499E1,3.196709871E0,6.602287292E-3,-3.497319221E-1
3.435579015E1,3.481812477E0,1.302175522E-1,-9.547197819E-2
3.437566900E1,3.085501671E0,-3.989272118E-1,2.330286503E-1
3.439556374E1,2.500050068E0,-1.133463383E0,3.681726456E-1
3.441546244E1,2.182569027E0,-1.225230694E0,8.284900188E-1
3.443535661E1,2.116537094E0,-3.777770996E-1,1.876481533E0
3.445522468E1,2.468198299E0,1.988162994E0,3.056953907E0
3.447513333E1,3.620148659E0,7.783386230E0,4.573701859E0
3.449506093E1,4.456152916E0,1.574570465E1,6.235365391E0
3.451490874E1,3.518526077E0,2.126353645E1,7.706650257E0
3.453479583E1,9.475340843E-1,2.154427528E1,9.287774086E0
3.455467057E1,1.087803364E0,2.078586769E1,1.156838989E1
3.457456270E1,5.410449982E0,2.228932571E1,1.023478699E1
3.459446531E1,1.071642113E1,2.026201630E1,3.831635952E0
3.461433197E1,1.201394749E1,1.163669968E1,-1.757670641E0
3.463422317E1,9.840762138E0,1.420068264E0,-5.675451279E0
3.465412062E1,6.860520840E0,-8.711738586E0,-8.133926392E0
3.467405171E1,3.356614351E0,-1.985471916E1,-5.185866356E0
3.469390291E1,2.971200705E0,-3.096375275E1,-3.976523876E0
3.471380562E1,6.929918766E0,-4.830562973E1,-7.814312458E0
3.473369697E1,9.338643074E0,-5.299625015E1,-4.460283756E0
3.475356380E1,4.694383621E0,-2.850013733E1,-3.461075306E0
3.477345635E1,-6.483920097E0,4.514566660E-1,-6.906769753E0
3.479333817E1,2.961664915E0,8.808002472E-1,-3.875102043E0
3.481326604E1,5.955899239E0,-1.111882305E1,2.611379623E-1
3.483316067E1,2.153388262E0,-1.540070724E1,-2.286864758E0
3.485308093E1,2.818359852E0,-1.538743019E1,-1.103347778E0
3.487291583E1,1.663310528E0,-1.443280602E1,1.055405617E0
3.489281869E1,2.006945610E-1,-1.288209152E1,6.225237846E-1
3.491273265E1,-1.091366768E0,-8.819367409E0,-3.363590240E-1
3.493257906E1,-1.053365231E0,-4.683646679E0,-9.728193283E-1
3.495247098E1,-8.280878067E-1,-2.300325394E0,-4.339098930E-1
3.497240109E1,-1.363311768E0,8.869051933E-1,5.439667702E-1
3.499227192E1,-1.234568596E0,3.749422789E0,-2.123923302E-1
3.501216755E1,-8.728628159E-1,5.249615192E0,5.480475426E-1
3.503204739E1,-1.317329407E0,5.828042507E0,2.733752489E0
3.505193859E1,-8.959245682E-1,5.431427479E0,2.945726395E0
3.507180598E1,5.122246742E-1,6.008883476E0,2.259105444E0
3.509173994E1,7.622013092E-1,6.413997650E0,3.125653267E0
3.511159348E1,-7.851552963E-2,5.802787304E0,4.702997208E0
3.513150640E1,1.454167366E-1,4.282682896E0,4.421512604E0
3.515136515E1,8.808350563E-1,2.695977688E0,2.802246809E0
3.517126739E1,1.717041016E0,2.120677471E0,1.842133999E0
3.519119526E1,2.487773895E0,1.678430080E0,1.124673963E0
3.521110432E1,3.109106779E0,1.223118782E0,7.812337875E-1
3.523097900E1,3.235741615E0,7.784509659E-1,7.153605223E-1
3.525085369E1,3.338472366E0,7.554769516E-2,8.034915924E-1
3.527073979E1,3.402926683E0,2.261581421E-1,1.221163750E0
3.529062276E1,3.091236353E0,6.842002869E-1,1.353187561E0
3.531049182E1,2.860244989E0,6.925835609E-1,9.243974686E-1
3.533038567E1,2.844560862E0,9.108824730E-1,1.345705986E-1
3.535029104E1,2.577240705E0,1.357578754E0,-4.830082655E-1
3.537017802E1,2.200319290E0,1.422857761E0,-7.496654987E-1
3.539009411E1,1.834616661E0,1.579480171E0,-5.007258654E-1
3.540996604E1,1.370023251E0,1.303967953E0,1.660513878E-2
3.542984926E1,1.237615108E0,1.049923897E0,2.792937756E-1
3.544975963E1,1.197058201E0,9.485955238E-1,1.605927944E-1
3.546963843E1,1.007080078E0,6.808385849E-1,2.893271446E-1
3.548952083E1,8.800029755E-1,4.841709137E-1,5.560653210E-1
3.550940093E1,8.912968636E-1,7.136058807E-1,6.263530254E-1
3.552931505E1,1.079056263E0,9.562125206E-1,5.507776737E-1
3.554917229E1,9.887127876E-1,8.807330132E-1,4.062266350E-1
3.556909718E1,8.094377518E-1,6.821370125E-1,3.606066704E-1
3.558899020E1,6.892576218E-1,5.643515587E-1,3.139898777E-1
3.560887817E1,4.824981689E-1,4.903264046E-1,3.424289227E-1
3.562875651E1,3.218598366E-1,5.763931274E-1,4.078071117E-1
3.564865984E1,1.438403130E-1,5.206146240E-1,6.527028084E-1
3.566851572E1,4.141616821E-2,3.387303352E-1,6.980063915E-1
3.568841489E1,1.586437225E-3,1.740903854E-1,2.342753410E-1
3.570831109E1,-1.675252914E-1,2.693929672E-1,5.552744865E-2
3.572820812E1,-2.715616226E-1,2.506837845E-1,2.387094498E-2
3.574808197E1,-2.600073814E-1,4.957008362E-2,-1.444172859E-1
3.576801333E1,-5.009303093E-1,-4.770755768E-2,-1.294944286E-1
3.578785958E1,-6.117544174E-1,2.839708328E-2,-1.844220161E-1
3.580778395E1,-5.821580887E-1,-1.547288895E-2,-1.527545452E-1
3.582766411E1,-5.824341774E-1,-1.718773842E-1,3.932166100E-2
3.584756140E1,-4.606113434E-1,-3.508000374E-1,-4.241895676E-2
3.586740973E1,-3.788223267E-1,-4.052333832E-1,-1.571662426E-1
3.588731239E1,-2.955498695E-1,-3.504834175E-1,-2.409582138E-1
3.590725166E1,-2.908978462E-1,-3.664255142E-1,-3.429551125E-1
3.592712911E1,-3.874735832E-1,-4.523124695E-1,-1.161346436E-1
3.594704291E1,-3.349256516E-1,-4.063615799E-1,-5.308604240E-2
3.596689697E1,-2.153964043E-1,-2.667651176E-1,-3.035049438E-1
3.598679135E1,-2.057304382E-1,-1.884222031E-1,-3.527271748E-1
3.600669182E1,-2.883839607E-1,-1.818890572E-1,1.242709160E-2
3.602655781E1,-4.395861626E-1,-1.828637123E-1,4.783530235E-1
3.604642968E1,-4.224591255E-1,-1.381545067E-1,6.480329037E-1
3.606631937E1,-2.200803757E-1,8.310079575E-2,5.747787952E-1
3.608621057E1,-3.730821609E-2,2.746715546E-1,4.345281124E-1
3.610611874E1,3.927230835E-2,2.854299545E-1,3.362882137E-1
3.612604953E1,-1.990556717E-2,3.568677902E-1,3.645555973E-1
3.614590453E1,-1.271772385E-2,3.555192947E-1,3.635087013E-1
3.616580098E1,-4.027795792E-2,2.927474976E-1,2.432363033E-1
3.618569369E1,-1.965441704E-1,2.140522003E-1,2.991151810E-2
3.620554687E1,-3.023872375E-1,3.556590080E-1,-1.436610222E-1
3.622544093E1,-2.423524857E-1,4.945168495E-1,-1.778731346E-1
3.624533885E1,4.089355469E-3,3.414688110E-1,-1.636083126E-1
3.626526624E1,1.727871895E-1,-1.633596420E-2,-2.368965149E-1
3.628516005E1,3.867187500E-1,-8.460426331E-2,-1.787421703E-1
3.630507114E1,7.203283310E-1,-1.009387970E-1,-2.366304398E-1
3.632491708E1,1.223755360E0,-2.347350121E-1,-4.216301441E-1
3.634481854E1,2.091624737E0,-4.034099579E-1,-4.374730587E-1
3.636470749E1,3.243369579E0,-7.452974319E-1,-5.014655590E-1
3.638457432E1,4.304522514E0,-1.268484592E0,-7.920217514E-1
3.640446864E1,4.822905540E0,-1.771852970E0,-9.716486931E-1
3.642434838E1,4.936784744E0,-2.011420965E0,-5.385601521E-1
3.644423494E1,5.330587864E0,-1.776834965E0,-2.810449600E-1
3.646413406E1,6.294364452E0,-1.805524826E-1,4.536843300E-1
3.648407874E1,7.985306740E0,5.016669750E0,2.928536415E0
3.650390640E1,9.408485413E0,1.653992653E1,6.845372200E0
3.652379541E1,6.381007671E0,2.635726357E1,9.558134079E0
3.654368541E1,-4.330439568E-1,2.771913147E1,1.168383980E1
3.656359119E1,-1.075180531E0,2.557963562E1,1.304331207E1
3.658349984E1,5.056363106E0,2.499958420E1,9.669162750E0
3.660335145E1,1.034062958E1,2.011491776E1,2.249202728E0
3.662324072E1,8.194854736E0,9.646223068E0,-1.257433414E0
3.664316317E1,2.211086750E0,-2.771086216E0,-3.060420752E0
3.666308015E1,-1.395413876E0,-1.481716824E1,-5.473955154E0
3.668294692E1,-3.095288277E-1,-2.976999664E1,-6.791594982E0
3.670282479E1,3.203850746E0,-5.276875687E1,-4.924663544E0
3.672270072E1,8.359321594E0,-6.922859955E1,-5.691623688E0
3.674260911E1,3.874834538E0,-3.484403610E1,-6.212581635E0
3.676247833E1,-4.650544167E0,8.109273911E0,-1.064925575E1
3.678236562E1,1.095633602E1,-3.155767441E0,-1.365607834E1
3.680228234E1,1.235042572E1,-2.400394630E1,-4.140214920E0
3.682216437E1,-2.058663368E-1,-2.485222435E1,-3.863861084E0
3.684205635E1,-6.594161987E-1,-1.738385582E1,-1.252694130E0
3.686194427E1,-1.532929897E0,-1.211530685E1,3.402454853E0
3.688185473E1,-2.783512115E0,-8.132673264E0,3.028235912E0
3.690173963E1,-1.078279972E0,-4.739714622E0,1.501436234E-1
3.692162104E1,-3.958330154E-1,-1.525871992E0,-5.760936737E-1
3.694151624E1,-7.630887032E-1,2.219377041E0,9.378690720E-1
3.696139052E1,-7.934546471E-1,5.252954483E0,2.161156654E0
3.698127937E1,-3.448796272E-1,7.018498898E0,1.165873051E0
3.700118093E1,6.130371094E-1,7.641714096E0,-2.283811569E-1
3.702111989E1,1.596939087E0,7.265162468E0,-5.558738708E-1
3.704094848E1,2.046356201E0,7.118556023E0,3.622364998E-1
3.706084239E1,2.478706837E0,6.681294441E0,7.726583481E-1
3.708072140E1,3.384165287E0,5.638769150E0,3.049564362E-2
3.710066140E1,3.850569725E0,4.426795006E0,-1.019825459E0
3.712051104E1,3.725580454E0,4.226519585E0,-1.458580256E0
3.714042661E1,3.635656595E0,4.788780212E0,-1.079747677E0
3.716030015E1,3.971730232E0,4.829560757E0,-8.288071156E-1
3.718018994E1,4.672910690E0,4.069613934E0,-6.669585705E-1
3.720009390E1,4.995512962E0,2.764363766E0,-3.011729717E-1
3.721998041E1,5.098064423E0,2.201467514E0,4.843053818E-1
3.723986494E1,4.986898422E0,2.501093864E0,9.106411934E-1
3.725977098E1,4.256089211E0,2.659885406E0,9.730613232E-1
3.727964630E1,3.384786606E0,2.414958477E0,8.551719189E-1
3.729952833E1,2.479376793E0,2.162645340E0,1.671168804E-1
3.731943994E1,1.916116714E0,2.462463379E0,5.666732788E-3
3.733931317E1,1.793539524E0,2.329199791E0,1.840903759E-1
3.735920781E1,1.991571426E0,1.810585499E0,6.397759914E-1
3.737912124E1,1.730895042E0,1.195497513E0,5.192902088E-1
3.739901572E1,1.197969437E0,9.941697121E-1,9.982800484E-2
3.741885583E1,7.395730019E-1,1.129755020E0,1.424605846E-1
3.743875426E1,6.512141228E-1,1.207209587E0,5.242874622E-1
3.745865869E1,9.476046562E-1,9.507789612E-1,4.978735447E-1
3.747853208E1,1.075245380E0,7.032613754E-1,4.028213024E-1
3.749843161E1,1.319651604E0,1.085083485E0,3.899917603E-1
3.751831937E1,1.217645168E0,1.515193939E0,3.232161999E-1
3.753820958E1,7.839818001E-1,1.578654289E0,7.243573666E-1
3.755809593E1,4.880161285E-1,1.322343349E0,1.022349596E0
3.757801906E1,4.898476601E-1,9.280266762E-1,9.696137905E-1
3.759788822E1,5.181374550E-1,6.611242294E-1,7.704651356E-1
3.761777567E1,6.331133842E-1,4.288568497E-1,5.413959026E-1
3.763766171E1,4.912233353E-1,3.205003738E-1,3.934705257E-1
3.765754973E1,1.662683487E-1,2.249412537E-1,1.457531452E-1
3.767743041E1,-9.863328934E-2,-2.041959763E-2,-2.244653702E-1
3.769732661E1,-3.016233444E-1,-1.390757561E-1,-2.172739506E-1
3.771723661E1,-3.347654343E-1,-1.921939850E-1,-4.133198261E-1
3.773711249E1,-3.788971901E-1,-1.175546646E-1,-6.286079884E-1
3.775701203E1,-4.933800697E-1,-3.790855408E-2,-7.174158096E-1
3.777689119E1,-7.082343102E-1,-1.594657898E-1,-6.312079430E-1
3.779679661E1,-1.051004887E0,-4.227814674E-1,-7.163267136E-1
3.781666739E1,-1.179674625E0,-4.577040672E-1,-7.806470394E-1
3.783654937E1,-1.140207767E0,-3.982763290E-1,-8.723855019E-1
3.785643749E1,-1.191546917E0,-5.200328827E-1,-7.014352083E-1
3.787633140E1,-1.284136295E0,-7.624278069E-1,-4.291234016E-1
3.789622687E1,-1.269301414E0,-1.046846867E0,-4.708490372E-1
3.791611140E1,-1.263952255E0,-1.274342060E0,-5.018913746E-1
3.793603531E1,-1.256002426E0,-1.373657227E0,-4.587209225E-1
3.795589786E1,-1.313104153E0,-1.435138226E0,-4.177882671E-1
3.797581515E1,-1.452219009E0,-1.495566368E0,-3.712525368E-1
3.799571036E1,-1.515582561E0,-1.528964996E0,-4.997975826E-1
3.801557900E1,-1.406981468E0,-1.456024170E0,-4.577398300E-1
3.803545458E1,-1.255931854E0,-1.359653473E0,-3.211209774E-1
3.805536343E1,-1.258132458E0,-1.228871822E0,-3.700588942E-1
3.807525630E1,-1.278976917E0,-8.912892342E-1,-4.380364418E-1
3.809519374E1,-1.220221996E0,-4.016609192E-1,-4.016865492E-1
3.811508520E1,-1.095987320E0,-1.005849838E-1,-3.478008509E-1
3.813493479E1,-9.776253700E-1,-3.204965591E-2,-3.327748775E-1
3.815480270E1,-8.994660378E-1,3.324213028E-1,-6.426250935E-1
3.817472020E1,-1.355361938E0,7.030234337E-1,-6.867947578E-1
3.819459442E1,-1.942301273E0,3.288421631E-1,1.958868504E-1
3.821449213E1,-2.705727577E0,-5.735511780E-1,1.325302124E0
3.823435885E1,-3.059571266E0,-5.895566940E-1,1.275415897E0
3.825427515E1,-2.648849964E0,-2.389082909E-1,2.871413231E-1
3.827417119E1,-1.680006981E0,2.746090889E-1,-5.925975442E-1
3.829409572E1,-2.616214752E-1,8.963084221E-1,-6.273828149E-1
3.831393822E1,1.249456406E0,1.555799484E0,-3.105911016E-1
3.833384005E1,2.314620018E0,1.879127026E0,-2.658315897E-1
3.835372427E1,3.237375736E0,2.254855633E0,-3.409576416E-1
3.837360468E1,3.840062141E0,2.922005415E0,-1.072673798E-1
3.839350411E1,4.389332294E0,3.623636723E0,4.042137861E-1
3.841339999E1,4.907548904E0,3.482561588E0,5.713444948E-1
3.843327749E1,5.411878586E0,2.470524549E0,5.365633965E-1
3.845319911E1,6.163259506E0,1.654894829E0,5.786061287E-1
3.847308359E1,6.779363155E0,2.692956448E0,9.267932177E-1
3.849295036E1,7.069082737E0,5.436216354E0,2.337510586E0
3.851282541E1,7.178184032E0,7.183063030E0,4.694667816E0
3.853272473E1,6.805027008E0,8.740365982E0,7.481150627E0
3.855261541E1,6.526820183E0,1.272666359E1,9.505230904E0
3.857253046E1,6.980508804E0,1.744087982E1,8.315126419E0
3.859240635E1,5.599276066E0,2.165007782E1,6.392190933E0
3.861229015E1,2.472295761E0,2.244311714E1,5.279337883E0
3.863217781E1,8.363318443E-1,2.200423813E1,3.796751499E0
3.865208900E1,7.136917114E-1,1.926097488E1,1.487278938E0
3.867195093E1,-3.253951073E-1,1.337661362E1,-6.687021255E-2
3.869185843E1,-1.548777103E0,3.771403313E0,-2.251078129E0
3.871175421E1,-2.430351257E0,-8.035291672E0,-5.094484329E0
3.873163265E1,-6.083488464E-1,-1.919011116E1,-6.511882305E0
3.875153062E1,3.381367207E0,-3.537404633E1,-4.823566914E0
3.877140322E1,6.976680756E0,-5.957771301E1,-4.034386635E0
3.879131026E1,8.867379189E0,-5.324257660E1,3.241386414E-1
3.881122458E1,1.049763393E1,-1.862317467E1,-7.135118961E0
3.883110265E1,4.004382610E0,-8.133494854E-2,-1.705953407E1
3.885102302E1,3.202729225E0,-3.701832056E0,-5.330635548E0
3.887086979E1,4.955733299E0,-2.094989967E1,-1.126654625E0
3.889076880E1,4.441498280E0,-2.361332512E1,-6.371120453E0
3.891062536E1,1.461662292E0,-1.603867149E1,-5.968174934E0
3.893051723E1,-1.442123413E0,-9.302474022E0,-3.830311298E0
3.895042682E1,-4.179277897E0,-3.080610991E0,-8.511514664E-1
3.897031843E1,-5.122151375E0,1.886499047E0,1.922731400E0
3.899018468E1,-3.533368587E0,3.034617424E0,2.395019531E0
3.901008072E1,-1.142148018E0,5.173055649E0,1.628293514E0
3.902998786E1,1.160214901E0,7.215471745E0,8.233673573E-1
3.904987520E1,1.999983311E0,7.155014038E0,1.204173803E0
3.906978453E1,1.291969776E0,8.374954224E0,3.100594997E0
3.908966244E1,1.362603664E0,9.772084236E0,3.215942860E0
3.910955135E1,2.175984383E0,8.721616745E0,7.641309500E-1
3.912944130E1,2.622982979E0,7.359435081E0,-1.123533249E0
3.914930869E1,2.865444183E0,5.925813198E0,-9.505386949E-1
3.916919906E1,3.227191925E0,5.336672783E0,-3.920031190E-1
3.918913291E1,3.427853823E0,4.639918327E0,-3.161433935E-1
3.920902885E1,2.919188499E0,3.662415028E0,-2.589822412E-1
3.922890494E1,2.697478294E0,2.599191189E0,-1.804133654E-1
3.924876447E1,2.877071857E0,1.759471893E0,2.263206244E-1
3.926867536E1,3.176753044E0,1.708569050E0,1.090248346E0
3.928855380E1,3.151422024E0,1.519251823E0,1.185877562E0
3.930844588E1,2.713543892E0,9.840421677E-1,9.294705391E-1
3.932832848E1,2.579760075E0,7.850303650E-1,1.170693278E0
3.934822885E1,2.682733059E0,9.953908920E-1,1.354600191E0
3.936811749E1,2.636694193E0,1.006340504E0,1.376147628E0
3.938802286E1,2.246133804E0,5.926985741E-1,1.694764495E0
3.940791869E1,1.673258305E0,3.875608444E-1,1.930097103E0
3.942776989E1,1.215129852E0,5.695967674E-1,1.295093894E0
3.944771078E1,9.399538040E-1,7.847709656E-1,4.575542212E-1
3.946755364E1,8.928947449E-1,1.163951397E0,3.060563803E-1
3.948746703E1,7.725687027E-1,1.388121128E0,3.787586689E-1
3.950733947E1,5.652928352E-1,1.189954758E0,1.802761555E-1
3.952726645E1,3.943328857E-1,9.895424843E-1,-2.175301909E-1
3.954713083E1,2.203059196E-1,1.034622669E0,-3.413355350E-1
3.956706697E1,6.964015961E-2,1.082603455E0,-1.510579586E-1
3.958691015E1,1.068730354E-1,9.496293068E-1,1.667023897E-1
3.960681088E1,2.717547417E-1,7.375082970E-1,1.903586388E-1
3.962668968E1,5.241060257E-1,6.116194725E-1,-1.033700705E-1
3.964658442E1,4.981994629E-1,5.884289742E-1,-1.914768219E-1
3.966646499E1,3.602681160E-1,4.691905975E-1,4.948914051E-2
3.968637984E1,3.193898201E-1,2.795953751E-1,7.692039013E-2
3.970622822E1,2.564225197E-1,2.060418129E-1,-1.996831894E-1
3.972615911E1,7.234573364E-2,3.825993538E-1,-1.854431629E-1
3.974603005E1,-1.947441101E-1,2.747368813E-1,-1.462042332E-1
3.976593411E1,-2.708797455E-1,3.070402145E-2,-3.042509556E-1
3.978583020E1,-4.051494598E-2,-1.904449463E-1,-2.712041140E-1
3.980571734E1,2.467947006E-1,-1.404752731E-1,-6.539857388E-2
3.982558661E1,2.916207314E-1,-1.687664986E-1,-6.380200386E-3
3.984549208E1,1.804685593E-2,-2.807579041E-1,-1.734350920E-1
3.986538385E1,-3.835163116E-1,-2.071685791E-1,-2.385998964E-1
3.988526166E1,-3.908214569E-1,1.195287704E-2,-1.570973396E-1
3.990518770E1,6.993103027E-2,2.048587799E-2,-2.160756588E-1
3.992509864E1,4.265866280E-1,-2.284941673E-1,-3.016464710E-1
3.994493739E1,3.479032516E-1,-3.683104515E-1,-1.966788769E-1
3.996483973E1,3.111505508E-2,-5.557031631E-1,-2.058973312E-1
3.998472807E1,-2.328953743E-1,-6.567535400E-1,-2.068319321E-1
4.000460583E1,-4.235315323E-1,-6.440191269E-1,-5.251097679E-2
4.002449926E1,-4.643964767E-1,-5.646629333E-1,1.108353138E-1
4.004437765E1,-4.362120628E-1,-5.930671692E-1,5.217027664E-2
4.006427458E1,-4.416213036E-1,-5.793595314E-1,1.785326004E-2
4.008416322E1,-4.206833839E-1,-5.886750221E-1,-1.029117107E-1
4.010405947E1,-4.488067627E-1,-5.560650826E-1,-2.601454258E-1
4.012396088E1,-5.720229149E-1,-3.730034828E-1,-1.220264435E-1
4.014388046E1,-6.762070656E-1,-1.910834312E-1,-1.145048141E-1
4.016374578E1,-6.625237465E-1,-1.704173088E-1,-2.348701954E-1
4.018364223E1,-7.354016304E-1,-3.166904449E-1,-2.372890711E-1
4.020351593E1,-8.235940933E-1,-4.505786896E-1,-1.973192692E-1
4.022340900E1,-7.173037529E-1,-3.910789490E-1,-1.853476763E-1
4.024327781E1,-4.951858521E-1,-2.482981682E-1,-1.910514832E-1
4.026320348E1,-2.467861176E-1,-2.237687111E-1,-2.595770359E-1
4.028309687E1,-4.512467384E-1,-3.449692726E-1,-3.722229004E-1
4.030300812E1,-9.434766769E-1,-3.983654976E-1,-1.780024767E-1
4.032285322E1,-1.213489532E0,-4.954547882E-1,-6.241095066E-2
4.034274989E1,-1.221816063E0,-5.021963120E-1,-1.153020859E-1
4.036262140E1,-1.185855389E0,-4.190344810E-1,-2.656430006E-1
4.038250650E1,-9.479680061E-1,-3.301086426E-1,-4.207571745E-1
4.040242031E1,-3.918452263E-1,-2.056808472E-1,-3.536767364E-1
4.042231135E1,3.122911453E-1,-8.147096634E-2,-1.561868191E-1
4.044220072E1,1.165568829E0,1.012887955E-1,5.212795734E-2
4.046207395E1,2.035439014E0,2.757658958E-1,2.720339298E-1
4.048199296E1,2.802905560E0,7.196950912E-2,5.884118080E-1
4.050185473E1,3.613899708E0,-6.406106949E-1,8.457726240E-1
4.052176869E1,4.281785011E0,-1.660690069E0,1.087537766E0
4.054166312E1,5.063467503E0,-2.701563120E0,6.799097061E-1
4.056154552E1,6.594311237E0,-1.825580359E0,-3.066778183E-2
4.058142317E1,9.297373772E0,4.484275341E0,-7.884263992E-1
4.060131197E1,1.244517899E1,1.480072594E1,-1.302994967E0
