"Time (s)","Linear Acceleration x (m/s^2)","Linear Acceleration y (m/s^2)","Linear Acceleration z (m/s^2)"
2.151585400E-2,3.990333080E-1,7.304058075E-1,-3.854808807E-1
4.142189600E-2,3.548462391E-1,3.120059967E-1,-2.381274700E-1
6.131314600E-2,3.492081165E-1,-1.313438416E-1,-5.931782722E-2
8.121913500E-2,4.155249596E-1,-5.159444809E-1,-4.605932236E-1
1.010613230E-1,5.603563786E-1,-1.047060013E0,-1.028674126E0
1.209710100E-1,6.824762821E-1,-1.553984642E0,-1.416394949E0
1.408466870E-1,8.610932827E-1,-1.916947842E0,-1.587738037E0
1.607170520E-1,8.927175999E-1,-2.369981766E0,-1.773279190E0
1.806283020E-1,7.073464394E-1,-2.649583340E0,-1.962396264E0
2.005276250E-1,2.787837982E-1,-2.676302910E0,-2.046843052E0
2.203951250E-1,-5.107576847E-1,-2.044702053E0,-1.532204628E0
2.403024690E-1,-1.626470804E0,-1.505139351E0,-6.615893841E-1
2.602035100E-1,-2.797026157E0,-1.081529140E0,1.369035244E-1
2.800958020E-1,-3.527299166E0,-5.387830734E-1,8.063855171E-1
2.999539790E-1,-3.559931278E0,4.214086533E-1,1.315443516E0
3.198711150E-1,-3.173897743E0,1.307939529E0,1.602264643E0
3.397504370E-1,-2.883907795E0,1.735048294E0,1.651101351E0
3.596459060E-1,-2.605696678E0,1.685607910E0,1.483195305E0
3.795466350E-1,-2.340082645E0,1.604452133E0,1.366916656E0
3.994406980E-1,-1.933626652E0,1.310237885E0,1.004613400E0
4.193146040E-1,-1.391385555E0,9.705305099E-1,5.033887625E-1
4.392481460E-1,-8.933224678E-1,5.737056732E-1,1.205767393E-1
4.591014790E-1,-3.567056656E-1,4.404067993E-2,-2.886849642E-1
4.789957500E-1,9.526920319E-2,-5.474529266E-1,-5.201332569E-1
4.988987190E-1,3.984274864E-1,-1.059944630E0,-5.583010912E-1
5.187732500E-1,6.077432632E-1,-1.352752686E0,-6.564319134E-1
5.386790310E-1,8.517491817E-1,-1.419326305E0,-7.123929262E-1
5.585818440E-1,9.362494946E-1,-1.422591209E0,-6.392202377E-1
5.784681460E-1,8.355686665E-1,-1.249403954E0,-4.859520197E-1
5.983553850E-1,7.665333748E-1,-1.021608829E0,-5.392904282E-1
6.182748650E-1,6.129488945E-1,-7.571187019E-1,-4.968159199E-1
6.381395000E-1,2.844753265E-1,-4.139251709E-1,-1.061527729E-1
6.580329900E-1,5.864238739E-2,3.114509583E-2,1.583002806E-1
6.779188750E-1,-1.060104370E-2,4.484834671E-1,2.527893782E-1
6.978382500E-1,-2.364692688E-1,6.007671356E-1,5.182156563E-1
7.177239270E-1,-4.915080070E-1,5.519800186E-1,8.187320232E-1
7.376160100E-1,-4.394145012E-1,6.536035538E-1,9.291698933E-1
7.574960620E-1,-8.877849579E-2,1.178817749E0,9.270604849E-1
7.773921560E-1,1.791243553E-1,1.898233414E0,7.006180286E-1
7.972910100E-1,2.924909592E-1,2.270882607E0,2.677882910E-1
8.172035100E-1,2.560472488E-1,2.148136139E0,1.169264317E-2
8.370673120E-1,9.914588928E-2,1.719791412E0,-8.272099495E-2
8.569511670E-1,7.451438904E-2,1.245381355E0,-1.541132927E-1
8.768698650E-1,3.712744713E-1,8.524122238E-1,-3.464277983E-1
8.967497600E-1,8.106470108E-1,6.043558121E-1,-5.186227560E-1
9.166105420E-1,1.118119478E0,3.688831329E-1,-6.120624542E-1
9.365254900E-1,1.275324345E0,1.471424103E-2,-6.254774332E-1
9.564184060E-1,1.234215975E0,-4.240779877E-1,-6.737934351E-1
9.763016350E-1,1.036965370E0,-8.168621063E-1,-6.868462563E-1
9.962555940E-1,7.092766762E-1,-1.153836250E0,-6.686916351E-1
1.016102000E0,4.191322327E-1,-1.370102406E0,-6.926373243E-1
1.035989917E0,2.379617691E-1,-1.463573456E0,-6.366466284E-1
1.055887260E0,1.224994659E-1,-1.440260887E0,-6.326472759E-1
1.075764031E0,-1.679000854E-1,-1.410589218E0,-5.990412235E-1
1.095663406E0,-6.482787132E-1,-1.313813210E0,-4.126099348E-1
1.115560750E0,-1.079255581E0,-1.162460804E0,-2.260638475E-1
1.135423979E0,-1.349612713E0,-8.913950920E-1,-2.014434338E-2
1.155323875E0,-1.517787457E0,-5.589828491E-1,2.048355341E-1
1.175264500E0,-1.569963455E0,-2.686481476E-1,4.038555622E-1
1.195099917E0,-1.495381832E0,-4.042339325E-2,5.322037935E-1
1.215017469E0,-1.459641457E0,1.326217651E-1,5.595309734E-1
1.234906010E0,-1.580890656E0,3.276758194E-1,5.040647984E-1
1.254784656E0,-1.712267399E0,3.976955414E-1,4.455200434E-1
1.274677937E0,-1.696775436E0,3.737268448E-1,4.395949841E-1
1.294553771E0,-1.573539257E0,2.805624008E-1,3.228369951E-1
1.314467677E0,-1.301572800E0,1.594362259E-1,1.233063936E-1
1.334373562E0,-9.808688164E-1,-1.813888550E-3,-4.429090023E-2
1.354267052E0,-6.900529861E-1,-1.548366547E-1,-1.669743061E-1
1.374156323E0,-4.132289886E-1,-3.222646713E-1,-3.452446461E-1
1.394068042E0,-2.088279724E-1,-4.923224449E-1,-4.688145518E-1
1.413932312E0,-5.120325089E-2,-6.623172760E-1,-4.922562838E-1
1.433819552E0,2.001762390E-2,-8.179788589E-1,-5.535903573E-1
1.453713875E0,9.896039963E-2,-9.571242332E-1,-8.434886932E-1
1.473577365E0,3.371539116E-1,-1.013529301E0,-1.086445570E0
1.493470542E0,6.680040359E-1,-6.141757965E-1,-9.299207926E-1
1.513358771E0,9.466941357E-1,-2.290649414E-1,-7.307466269E-1
1.533280177E0,1.064714909E0,5.724906921E-2,-6.517397761E-1
1.553195333E0,1.018702507E0,2.953367233E-1,-5.699989200E-1
1.573046271E0,9.605131149E-1,6.180067062E-1,-3.623415232E-1
1.592951323E0,9.822120667E-1,8.453130722E-1,-1.500194073E-1
1.612851583E0,9.994769096E-1,9.705018997E-1,2.835690975E-2
1.632728042E0,1.105473518E0,1.168980598E0,2.338043451E-1
1.652620594E0,1.289459944E0,1.345114708E0,1.420292854E-1
1.672512000E0,1.480165482E0,1.535518646E0,-2.959752083E-2
1.692393667E0,1.532217741E0,1.755977631E0,1.060625315E-1
1.712313510E0,1.506377935E0,1.873768806E0,1.617659330E-1
1.732250125E0,1.493178368E0,1.854984283E0,1.624798775E-2
1.752083042E0,1.533815384E0,1.785455704E0,-1.006908417E-1
1.771984656E0,1.661974669E0,1.713788033E0,-2.337908745E-1
1.791863198E0,1.734319210E0,1.783119202E0,-2.963622212E-1
1.811752000E0,1.749939680E0,1.682426453E0,-3.101656437E-1
1.831641323E0,1.759002209E0,1.452694893E0,-3.621021509E-1
1.851514240E0,1.707869530E0,1.229727745E0,-4.071929455E-1
1.871420542E0,1.561561823E0,1.019610405E0,-4.879649878E-1
1.891311167E0,1.454179525E0,7.843675613E-1,-6.338328123E-1
1.911226115E0,1.270537853E0,5.008420944E-1,-7.851248384E-1
1.931088354E0,1.106328964E0,2.615833282E-1,-8.438468575E-1
1.950990229E0,8.449413776E-1,5.725669861E-2,-7.118847370E-1
1.970880229E0,5.384888649E-1,-1.531658173E-1,-4.758243561E-1
1.990772885E0,3.511128426E-1,-3.763103485E-1,-4.209052324E-1
2.010655698E0,1.479415894E-1,-4.948825836E-1,-4.212480783E-1
2.030565073E0,-1.091117859E-1,-6.390624046E-1,-4.048810005E-1
2.050433042E0,-3.715648651E-1,-7.759199142E-1,-1.952500343E-1
2.070346323E0,-5.726394653E-1,-8.508005142E-1,-5.059516430E-2
2.090237729E0,-7.456350327E-1,-8.522562981E-1,-7.663321495E-2
2.110130646E0,-1.025773048E0,-6.798505783E-1,-1.733803749E-2
2.130010958E0,-1.417921543E0,-5.670480728E-1,1.596853733E-1
2.149886375E0,-1.839682579E0,-6.711421013E-1,2.797582150E-1
2.169789656E0,-2.149833679E0,-7.881040573E-1,1.954504251E-1
2.189692885E0,-2.252976418E0,-8.281078339E-1,1.021795273E-1
2.209557417E0,-2.166734695E0,-8.121466637E-1,8.940386772E-2
2.229460802E0,-2.024965286E0,-8.172049522E-1,3.164529800E-2
2.249341792E0,-1.864222050E0,-8.935637474E-1,-4.278969765E-2
2.269254240E0,-1.622766972E0,-9.905042648E-1,-1.127227545E-1
2.289158562E0,-1.506710529E0,-1.124813080E0,-2.208094597E-1
2.309023979E0,-1.533904076E0,-1.174869061E0,-2.338182926E-1
2.328914917E0,-1.501311779E0,-1.181449413E0,-2.480709553E-1
2.348826896E0,-1.317234993E0,-1.177728176E0,-3.210989237E-1
2.368700750E0,-1.049684525E0,-1.064250946E0,-2.970290184E-1
2.388603302E0,-9.340190887E-1,-1.062210083E0,-2.220222950E-1
2.408493198E0,-1.026576519E0,-1.094456196E0,-1.185168028E-1
2.428409240E0,-1.071934700E0,-1.003111362E0,-2.034876347E-1
2.448295385E0,-9.493117332E-1,-8.183388710E-1,-2.604233027E-1
2.468200594E0,-6.542730331E-1,-6.146059036E-1,-2.424255610E-1
2.488049708E0,-4.340825081E-1,-5.189790726E-1,-1.375349760E-1
2.507940750E0,-3.940701485E-1,-4.534997940E-1,6.243956089E-2
2.527849552E0,-2.745327950E-1,-3.962206841E-1,1.715141535E-1
2.547725281E0,-6.148386002E-2,-2.483310699E-1,2.515634298E-1
2.567641427E0,2.263612747E-1,1.039800644E-1,3.532906771E-1
2.587518979E0,5.103526115E-1,5.369873047E-1,2.429908514E-1
2.607427885E0,6.750931740E-1,8.001642227E-1,-1.956784725E-2
2.627314656E0,7.963562012E-1,9.831314087E-1,-3.658723831E-1
2.647204969E0,1.007678986E0,1.184501648E0,-5.940655470E-1
2.667101948E0,1.178111076E0,1.282888412E0,-6.552209258E-1
2.686983198E0,1.360259533E0,1.367913246E0,-6.608991623E-1
2.706894135E0,1.577440977E0,1.426767349E0,-7.086052299E-1
2.726764604E0,1.802185297E0,1.457377434E0,-6.923242211E-1
2.746641896E0,1.976456881E0,1.534188271E0,-5.899072886E-1
2.766545646E0,2.009569883E0,1.639950752E0,-4.653535485E-1
2.786450385E0,1.915741444E0,1.731059074E0,-3.322904110E-1
2.806365542E0,1.703871965E0,1.705824852E0,-1.953251362E-1
2.826281948E0,1.477483988E0,1.701520920E0,-1.406686306E-1
2.846109604E0,1.248731613E0,1.750646591E0,-8.462131023E-2
2.865995958E0,9.838190079E-1,1.718591690E0,9.122502804E-2
2.885885750E0,7.663755417E-1,1.481580734E0,8.206582069E-2
2.905787312E0,6.525125504E-1,1.201321602E0,-5.851161480E-2
2.925677521E0,6.234412193E-1,1.032777786E0,-2.141036987E-1
2.945580073E0,5.895509720E-1,7.657423019E-1,-3.030102253E-1
2.965484552E0,5.566263199E-1,4.103794098E-1,-3.628814220E-1
2.985342104E0,6.166968346E-1,5.928802490E-2,-4.246665239E-1
3.005249344E0,6.521372795E-1,-2.763528824E-1,-4.503709078E-1
3.025140646E0,5.811855793E-1,-4.787797928E-1,-5.185940266E-1
3.045038094E0,4.157636166E-1,-6.322231293E-1,-4.764817953E-1
3.064917833E0,3.186156750E-1,-8.413467407E-1,-3.585952520E-1
3.084821323E0,2.332689762E-1,-9.956827164E-1,-3.407245874E-1
3.104734656E0,1.353271008E-1,-1.033668518E0,-3.584488630E-1
3.124602625E0,4.289865494E-2,-9.842252731E-1,-3.786978722E-1
3.144497781E0,-1.981539726E-1,-1.011144161E0,-4.404646158E-1
3.164381896E0,-5.195555687E-1,-1.082247257E0,-5.085711479E-1
3.184295594E0,-6.964926720E-1,-1.128304482E0,-5.275681019E-1
3.204226583E0,-8.298368454E-1,-1.095876217E0,-5.756622553E-1
3.224073146E0,-1.032844543E0,-9.641232491E-1,-5.544683933E-1
3.243954240E0,-1.263142824E0,-8.226270676E-1,-5.010296106E-1
3.263842000E0,-1.437782049E0,-7.764587402E-1,-3.944485188E-1
3.283726896E0,-1.563632965E0,-7.223281860E-1,-1.667813063E-1
3.303627104E0,-1.634961367E0,-6.290931702E-1,9.844338894E-2
3.323514292E0,-1.676299095E0,-4.950885773E-1,2.757927179E-1
3.343402052E0,-1.815758705E0,-4.004163742E-1,4.753488302E-1
3.363301115E0,-1.948652744E0,-3.890571594E-1,5.627930164E-1
3.383208823E0,-1.940629959E0,-3.839225769E-1,4.441454411E-1
3.403074708E0,-1.794342518E0,-3.465270996E-1,3.048762083E-1
3.422966010E0,-1.683204651E0,-3.331336975E-1,3.439717293E-1
3.442894031E0,-1.536689281E0,-3.425168991E-1,4.385133982E-1
3.462764865E0,-1.152472496E0,-3.272581100E-1,2.532286644E-1
3.482650229E0,-7.402262688E-1,-3.630266190E-1,-1.569867134E-2
3.502541062E0,-6.067819595E-1,-3.308677673E-1,-3.675341606E-3
3.522442573E0,-7.794852257E-1,-3.132610321E-1,2.034224272E-1
3.542329552E0,-7.016606331E-1,-3.058366776E-1,1.840229034E-1
3.562245802E0,-3.625974655E-1,-2.998523712E-1,2.705895901E-2
3.582109448E0,-1.007127762E-2,-3.044080734E-1,5.789959431E-2
3.602005750E0,2.863969803E-1,-2.436952591E-1,5.331599712E-2
3.621913198E0,6.102848053E-1,-2.438564301E-1,-1.551449299E-1
3.641795073E0,9.281923771E-1,-2.882413864E-1,-3.245557547E-1
3.661675177E0,1.081242800E0,-2.099475861E-1,-2.847123146E-1
3.681565281E0,1.083979607E0,-5.969905853E-2,-2.194844484E-1
3.701440021E0,1.118085384E0,1.350536346E-1,-2.870290279E-1
3.721363198E0,1.281043530E0,3.327093124E-1,-3.212603331E-1
3.741270698E0,1.413166523E0,4.870243073E-1,-2.926552296E-1
3.761117625E0,1.424285889E0,7.310171127E-1,-1.795762777E-1
3.781006219E0,1.388702393E0,1.044374466E0,-1.382044554E-1
3.800927885E0,1.351024151E0,1.326223373E0,-2.307841778E-1
3.820796115E0,1.333260536E0,1.476576805E0,-2.794988751E-1
3.840702781E0,1.288937807E0,1.539699554E0,-2.034081817E-1
3.860574604E0,1.198379278E0,1.623696327E0,-2.252393961E-1
3.880489344E0,1.081528425E0,1.650451660E0,-3.508814573E-1
3.900392417E0,9.596619606E-1,1.632984161E0,-4.158160686E-1
3.920283927E0,8.592689037E-1,1.557232857E0,-4.793504477E-1
3.940178562E0,7.937176228E-1,1.452630043E0,-4.670266509E-1
3.960037677E0,7.434549332E-1,1.323993683E0,-4.406378269E-1
3.979925437E0,7.159984112E-1,1.188457489E0,-4.493537545E-1
3.999841323E0,7.088267803E-1,1.066267967E0,-4.974792600E-1
4.019722677E0,6.535434723E-1,8.576135635E-1,-5.160299540E-1
4.039618510E0,5.904960632E-1,6.081886292E-1,-5.217043757E-1
4.059483458E0,5.347747803E-1,2.861452103E-1,-5.376093984E-1
4.079378667E0,5.010495186E-1,-3.350734711E-2,-6.475247145E-1
4.099270437E0,4.358131886E-1,-3.532190323E-1,-7.040187716E-1
4.119182260E0,3.799929619E-1,-6.677732468E-1,-6.392591000E-1
4.139070750E0,3.241546154E-1,-8.791756630E-1,-6.122742891E-1
4.158968927E0,2.088694572E-1,-1.006953716E0,-6.039086580E-1
4.178876062E0,-3.076648712E-2,-1.122623920E0,-4.919829369E-1
4.198745073E0,-3.358445168E-1,-1.167240143E0,-3.742654324E-1
4.218637000E0,-5.522150993E-1,-1.169267178E0,-3.514078856E-1
4.238543615E0,-6.858205795E-1,-1.093794346E0,-2.283535004E-1
4.258432833E0,-8.645467758E-1,-1.014551640E0,-6.219720840E-2
4.278345073E0,-1.043421745E0,-8.622994423E-1,6.420147419E-2
4.298222781E0,-1.332050323E0,-7.068748474E-1,1.829886436E-1
4.318074396E0,-1.543933868E0,-6.335697174E-1,2.798408270E-1
4.337987365E0,-1.646697521E0,-6.249704361E-1,3.395297527E-1
4.357895281E0,-1.720201492E0,-5.571613312E-1,4.645421505E-1
4.377756271E0,-1.763083458E0,-4.010019302E-1,5.085461140E-1
4.397676844E0,-1.767269135E0,-3.196897507E-1,4.383623600E-1
4.417573510E0,-1.694473267E0,-3.061590195E-1,3.605148792E-1
4.437466323E0,-1.643468380E0,-3.353815079E-1,3.316757679E-1
4.457355073E0,-1.592125416E0,-3.477745056E-1,3.541692495E-1
4.477213615E0,-1.502968788E0,-3.395853043E-1,2.360136509E-1
4.497133615E0,-1.222396851E0,-3.512535095E-1,6.170248985E-2
4.517023927E0,-8.996543884E-1,-3.945055008E-1,-9.646499157E-2
4.536926948E0,-6.881299019E-1,-5.126781464E-1,-2.505272627E-1
4.556816115E0,-5.281133652E-1,-6.163091660E-1,-3.567917347E-1
4.576707990E0,-3.730401993E-1,-6.143479347E-1,-3.820965290E-1
4.596609969E0,-1.772947311E-1,-5.345602036E-1,-4.311157465E-1
4.616491010E0,5.499744415E-2,-5.151643753E-1,-4.816825390E-1
4.636374812E0,1.725978851E-1,-5.230379105E-1,-3.493041992E-1
4.656277885E0,2.941284180E-1,-4.055595398E-1,-1.327320337E-1
4.676198719E0,5.397467613E-1,-2.355318069E-1,-1.135078669E-1
4.696035750E0,8.320121765E-1,-9.224224091E-2,-2.218647003E-1
4.715928979E0,9.598290920E-1,1.040010452E-1,-1.419236660E-1
4.735856062E0,1.008375883E0,3.264837265E-1,-8.238327503E-2
4.755726271E0,1.110532045E0,5.668506622E-1,-1.599804163E-1
4.775620281E0,1.147598028E0,8.339242935E-1,-1.139051914E-1
4.795489187E0,1.144483328E0,1.084522247E0,4.003405571E-2
4.815376479E0,1.156690359E0,1.201383591E0,3.656005859E-2
4.835277677E0,1.210766792E0,1.319981575E0,1.596057415E-2
4.855205229E0,1.200728655E0,1.414945602E0,-2.933919430E-2
4.875053823E0,1.129903078E0,1.408194542E0,-2.413260937E-2
4.894976010E0,9.969978333E-1,1.367770195E0,9.511518478E-2
4.914862677E0,8.251466751E-1,1.385892868E0,1.676157713E-1
4.934761427E0,6.653313637E-1,1.388017654E0,2.079814672E-1
4.954642677E0,5.415744781E-1,1.370903015E0,2.816267014E-1
4.974517729E0,5.102186203E-1,1.302264214E0,2.312442064E-1
4.994436635E0,4.713511467E-1,1.091672897E0,1.110224724E-1
5.014341531E0,4.201245308E-1,7.987918854E-1,2.446115017E-2
5.034248354E0,3.755688667E-1,5.691490173E-1,9.661316872E-3
5.054107260E0,3.143873215E-1,3.740282059E-1,-9.181296825E-2
5.073971167E0,2.494168282E-1,1.737756729E-1,-2.506330013E-1
5.093899240E0,2.847509384E-1,5.167007446E-3,-3.928765059E-1
5.113778667E0,4.047927856E-1,-2.512044907E-1,-4.476565123E-1
5.133658979E0,4.103112221E-1,-4.961619377E-1,-4.103697538E-1
5.153546896E0,2.148084641E-1,-7.181744576E-1,-5.665274858E-1
5.173452573E0,2.620077133E-2,-8.439087868E-1,-6.099325418E-1
5.193332260E0,-1.503920555E-1,-9.371743202E-1,-5.223473310E-1
5.213236219E0,-3.912086487E-1,-9.654374123E-1,-4.333267212E-1
5.233128198E0,-5.943884850E-1,-9.320635796E-1,-3.716185093E-1
5.253008094E0,-6.701693535E-1,-8.973369598E-1,-2.912931442E-1
5.272916323E0,-6.928763390E-1,-8.213353157E-1,-1.677885056E-1
5.292817469E0,-6.708288193E-1,-6.964578629E-1,-8.418095112E-2
5.312697990E0,-6.748499870E-1,-6.180586815E-1,3.945004940E-2
5.332566167E0,-6.766114235E-1,-6.387758255E-1,1.513165236E-1
5.352451375E0,-7.293624878E-1,-5.882773399E-1,2.861605883E-1
5.372354812E0,-7.790594101E-1,-4.740204811E-1,3.459919691E-1
5.392281687E0,-7.644052505E-1,-3.359766006E-1,3.304980993E-1
5.412204865E0,-7.853808403E-1,-2.229356766E-1,3.398963213E-1
5.432053667E0,-8.076028824E-1,-1.556596756E-1,3.673877716E-1
5.451926583E0,-8.731513023E-1,-1.419000626E-1,3.504848480E-1
5.471826635E0,-9.304404259E-1,-1.129779816E-1,2.610620260E-1
5.491716219E0,-9.613285065E-1,-1.411790848E-1,1.978617907E-1
5.511578719E0,-9.200754166E-1,-2.262926102E-1,1.195451021E-1
5.531496531E0,-8.307881355E-1,-3.492784500E-1,6.340682507E-2
5.551380906E0,-6.767759323E-1,-3.989906311E-1,-3.046751022E-3
5.571282677E0,-4.898614883E-1,-3.584308624E-1,-1.837980747E-2
5.591169969E0,-3.193688393E-1,-2.978086472E-1,1.621377468E-2
5.611055594E0,-1.198525429E-1,-3.442263603E-1,-3.068399429E-2
5.630943823E0,8.960247040E-2,-4.277024269E-1,-9.338402748E-2
5.650836896E0,2.086892128E-1,-4.553632736E-1,-2.295986414E-1
5.670747052E0,2.338876724E-1,-4.051308632E-1,-2.486159801E-1
5.690631115E0,2.139115334E-1,-4.048113823E-1,-2.420492172E-1
5.710518562E0,3.109536171E-1,-3.481221199E-1,-2.862452269E-1
5.730401896E0,3.522276878E-1,-2.437214851E-1,-2.139285803E-1
5.750293719E0,3.399214745E-1,-1.700358391E-1,-3.780376911E-2
5.770211427E0,3.444094658E-1,-7.938575745E-2,1.362359524E-2
5.790106896E0,3.750352859E-1,1.139364243E-1,3.042447567E-2
5.809997990E0,4.458489418E-1,3.924236298E-1,1.030515432E-1
5.829864448E0,4.283390045E-1,5.914449692E-1,1.917378902E-1
5.849748250E0,3.625507355E-1,6.660013199E-1,1.758474112E-1
5.869651740E0,3.306484222E-1,7.086410522E-1,2.291162014E-1
5.889544552E0,3.840785027E-1,8.086996078E-1,2.296869755E-1
5.909444917E0,3.598775864E-1,9.953594208E-1,1.924772263E-1
5.929344552E0,2.497658730E-1,1.184963226E0,2.282252312E-1
5.949213510E0,1.872463226E-1,1.221383095E0,2.279241085E-1
5.969120906E0,1.838874817E-1,1.207845688E0,1.553949118E-1
5.989018094E0,1.329646111E-1,1.168138504E0,1.661080122E-1
6.008904552E0,1.823549271E-1,1.147775650E0,2.347905636E-1
6.028790802E0,2.813439369E-1,9.822683334E-1,1.202356815E-1
6.048661092E0,3.641180992E-1,7.978420258E-1,-9.808087349E-2
6.068568123E0,4.794583321E-1,6.968030930E-1,-1.737371683E-1
6.088458956E0,6.222801208E-1,5.385513306E-1,-2.061275244E-1
6.108348071E0,7.121210098E-1,2.820882797E-1,-3.528051376E-1
6.128249842E0,8.734717369E-1,6.853199005E-2,-5.431456566E-1
6.148121925E0,1.032070637E0,-7.924318314E-2,-6.568260193E-1
6.168027915E0,1.046654224E0,-2.040815353E-1,-6.791105270E-1
6.187908383E0,9.829664230E-1,-3.500528336E-1,-6.435331106E-1
6.207793436E0,9.097118378E-1,-4.278812408E-1,-5.457211733E-1
6.227670571E0,7.832002640E-1,-3.902955055E-1,-3.930442333E-1
6.247609008E0,6.041102409E-1,-2.016139030E-1,-2.464488745E-1
6.267467081E0,4.361310005E-1,-2.534389496E-2,-1.650911570E-1
6.287386040E0,2.202305794E-1,6.121063232E-2,-2.709949017E-2
6.307256404E0,-6.688499451E-2,1.928348541E-1,5.717170238E-2
6.327150311E0,-4.363775253E-1,3.872613907E-1,1.024119854E-1
6.347054686E0,-7.985959053E-1,5.333614349E-1,1.529842615E-1
6.366946352E0,-1.053707600E0,6.446647644E-1,1.934114695E-1
6.386829008E0,-1.146929741E0,6.845607758E-1,2.107791901E-1
6.406710675E0,-1.144613266E0,6.430206299E-1,2.605754137E-1
6.426639269E0,-1.127531052E0,5.087165833E-1,2.514711618E-1
6.446506404E0,-1.039832115E0,3.541164398E-1,2.138681412E-1
6.466413227E0,-9.060001373E-1,1.958436966E-1,2.604352236E-1
6.486304477E0,-7.712531090E-1,-1.239776611E-5,3.097064495E-1
6.506246717E0,-6.544933319E-1,-2.169971466E-1,2.651432753E-1
6.526085519E0,-4.748148918E-1,-3.180680275E-1,1.502833366E-1
6.545959425E0,-2.811880112E-1,-3.993287086E-1,3.453361988E-2
6.565859373E0,-1.574168205E-1,-5.253520012E-1,-5.748212337E-2
6.585766665E0,-8.896017075E-2,-6.705031395E-1,-1.520117521E-1
6.605661873E0,-4.335546494E-2,-7.966508865E-1,-2.487698793E-1
6.625554581E0,-6.634473801E-2,-8.888163567E-1,-4.067515135E-1
6.645443852E0,-6.920003891E-2,-1.021159649E0,-5.012930632E-1
6.665327967E0,-1.285619736E-1,-1.136310101E0,-4.714261293E-1
6.685231248E0,-1.421370506E-1,-1.185996056E0,-4.502345324E-1
6.705117706E0,-1.398315430E-1,-1.122669220E0,-4.503409863E-1
6.724991092E0,-1.982150078E-1,-9.865202904E-1,-3.859106302E-1
6.744885727E0,-2.809281349E-1,-7.766509056E-1,-3.077102900E-1
6.764790779E0,-3.307938576E-1,-5.292329788E-1,-2.587637901E-1
6.784672446E0,-4.501991272E-1,-3.065094948E-1,-1.496489048E-1
6.804575519E0,-5.948834419E-1,-1.593494415E-2,8.731770515E-2
6.824445154E0,-6.646246910E-1,3.104343414E-1,2.839815617E-1
6.844370050E0,-7.198843956E-1,5.389747620E-1,4.151570797E-1
6.864262186E0,-8.394031525E-1,6.154279709E-1,4.163244963E-1
6.884179008E0,-9.379572868E-1,6.450300217E-1,4.660505056E-1
6.904024738E0,-9.494404793E-1,5.982313156E-1,4.777553082E-1
6.923898071E0,-8.940472603E-1,4.775686264E-1,4.077289104E-1
6.943807238E0,-7.530193329E-1,3.666172028E-1,3.527112007E-1
6.963695727E0,-6.008315086E-1,1.985597610E-1,2.862870693E-1
6.983581977E0,-4.399790764E-1,-3.012180328E-2,9.410476685E-2
7.003476925E0,-2.766761780E-1,-2.596383095E-1,-2.470040321E-2
7.023372290E0,-9.420633316E-2,-4.939403534E-1,-1.438264847E-1
7.043276248E0,6.510543823E-2,-6.322693825E-1,-2.845944166E-1
7.063182706E0,1.506886482E-1,-7.727880478E-1,-4.002306461E-1
7.083041613E0,1.404886246E-1,-8.526663780E-1,-4.218052626E-1
7.102935102E0,9.657859802E-2,-8.734593391E-1,-4.551527500E-1
7.122824269E0,1.367020607E-1,-8.594274521E-1,-3.986582756E-1
7.142724686E0,2.071604729E-1,-8.134732246E-1,-2.487070560E-1
7.162620102E0,2.873234749E-1,-7.378511429E-1,-1.570802927E-1
7.182510415E0,2.702274323E-1,-5.511174202E-1,-9.757947922E-2
7.202403748E0,1.721487045E-1,-3.189682961E-1,-6.895899773E-2
7.222308956E0,9.730815887E-3,-5.309581757E-2,-2.481508255E-2
7.242206821E0,-1.709566116E-1,1.865034103E-1,2.069854736E-2
7.262064425E0,-4.549975395E-1,3.755722046E-1,9.228944778E-2
7.281983123E0,-6.380867958E-1,6.231946945E-1,2.749925852E-1
7.301885988E0,-7.920041084E-1,7.804346085E-1,4.306148291E-1
7.321758904E0,-7.945685387E-1,8.094139099E-1,4.604605436E-1
7.341644008E0,-6.005783081E-1,7.727861404E-1,3.836672306E-1
7.361547446E0,-3.109693527E-1,6.941080093E-1,3.134694099E-1
7.381436456E0,-8.070850372E-2,6.419229507E-1,1.979813576E-1
7.401313800E0,7.677173615E-2,5.380764008E-1,3.348028660E-2
7.421227290E0,1.746253967E-1,3.696308136E-1,-8.277511597E-2
7.441091092E0,2.283544540E-1,1.303300858E-1,-1.582027674E-1
7.460971040E0,2.674884796E-1,-1.132612228E-1,-2.764902115E-1
7.480874998E0,3.525333405E-1,-2.844114304E-1,-3.586748838E-1
7.500773436E0,4.848914146E-1,-3.711838722E-1,-4.001821280E-1
7.520669581E0,6.165852547E-1,-4.247493744E-1,-4.175940752E-1
7.540561873E0,6.432199478E-1,-5.362606049E-1,-3.151506186E-1
7.560438175E0,6.929178238E-1,-6.737265587E-1,-2.388330698E-1
7.580341196E0,7.372269630E-1,-6.630582809E-1,-3.115143776E-1
7.600255311E0,7.387876511E-1,-5.123305321E-1,-4.291340113E-1
7.620151561E0,6.698455811E-1,-3.324966431E-1,-4.424618483E-1
7.640002602E0,6.039171219E-1,-1.708707809E-1,-4.128295183E-1
7.659918800E0,5.333523750E-1,-6.051063538E-2,-4.232326746E-1
7.679803019E0,4.453434944E-1,1.267900467E-1,-2.688601017E-1
7.699683540E0,3.473935127E-1,4.577274323E-1,4.005146027E-2
7.719572967E0,2.093195915E-1,7.412195206E-1,1.793893576E-1
7.739462863E0,9.948682785E-2,9.656953812E-1,3.010250330E-1
7.759355779E0,8.059597015E-2,1.116775513E0,2.915276289E-1
7.779275519E0,1.024851799E-1,1.171081543E0,1.836270094E-1
7.799140258E0,2.106523514E-2,1.134432793E0,8.347606659E-2
7.819056092E0,-5.069780350E-2,1.107702255E0,3.947556019E-2
7.838945831E0,-7.600831985E-2,1.068291664E0,-5.175495148E-2
7.858844946E0,-5.055713654E-2,9.537096024E-1,-8.050656319E-2
7.878722706E0,1.881313324E-2,7.288713455E-1,-1.764178276E-3
7.898594113E0,2.005438805E-1,4.849824905E-1,1.076430082E-1
7.918494842E0,5.628991127E-1,1.362800598E-1,4.642689228E-2
7.938384217E0,8.541879654E-1,-2.553567886E-1,-1.242947578E-1
7.958307915E0,1.030918598E0,-4.797921181E-1,-2.409608364E-1
7.978212133E0,1.071263790E0,-5.517544746E-1,-4.083884954E-1
7.998054842E0,9.588804245E-1,-5.091552734E-1,-5.338072777E-1
8.017969686E0,8.042025566E-1,-5.229611397E-1,-5.991561413E-1
8.037838800E0,6.762394905E-1,-5.641636848E-1,-6.093344688E-1
8.057731561E0,5.532407761E-1,-4.715628624E-1,-6.032075882E-1
8.077621196E0,4.577164650E-1,-2.481245995E-1,-5.731598139E-1
8.097498800E0,3.086900711E-1,-1.457118988E-2,-4.331213832E-1
8.117389008E0,8.565378189E-2,1.276922226E-1,-2.827071548E-1
8.137311873E0,-1.415233612E-1,3.737306595E-1,-6.372237206E-2
8.157187811E0,-3.099594116E-1,7.322654724E-1,1.289584637E-1
8.177096040E0,-4.615778923E-1,9.749107361E-1,2.667477727E-1
8.196976352E0,-6.079888344E-1,1.136044502E0,5.068975687E-1
8.216859321E0,-7.194132805E-1,1.222804070E0,6.581427455E-1
8.236734946E0,-8.596620560E-1,1.283924103E0,7.177973390E-1
8.256640154E0,-9.513540268E-1,1.299088478E0,6.967522502E-1
8.276546040E0,-9.639596939E-1,1.180456161E0,5.700351596E-1
8.296441456E0,-9.747152328E-1,9.179515839E-1,4.694621563E-1
8.316319425E0,-9.422154427E-1,5.943813324E-1,4.748384356E-1
8.336254946E0,-8.538732529E-1,3.431415558E-1,4.346234798E-1
8.356103175E0,-7.385454178E-1,1.365585327E-1,3.031299114E-1
8.376018019E0,-6.353793144E-1,-2.963447571E-2,2.070999146E-1
8.395904373E0,-5.935544968E-1,-1.682777405E-1,1.538289785E-1
8.415809477E0,-5.262465477E-1,-2.854614258E-1,9.564113617E-2
8.435697290E0,-4.722170830E-1,-3.904752731E-1,-4.419636726E-2
8.455583123E0,-4.746980667E-1,-5.287609100E-1,-1.836014986E-1
8.475484269E0,-4.603767395E-1,-6.818494797E-1,-1.960054636E-1
8.495336873E0,-4.449462891E-1,-8.808836937E-1,-2.770931721E-1
8.515243227E0,-4.756379128E-1,-1.073691368E0,-4.081523418E-1
8.535189998E0,-3.759565353E-1,-1.130154133E0,-4.893528223E-1
8.555042394E0,-2.307848930E-1,-1.156163216E0,-5.463951826E-1
8.574912446E0,-1.330127716E-1,-1.142881870E0,-5.331618786E-1
8.594824998E0,-1.503438950E-1,-1.029185295E0,-4.849215746E-1
8.614690883E0,-1.970782280E-1,-9.216384888E-1,-5.083884001E-1
8.634586613E0,-1.953392029E-1,-8.013439178E-1,-5.680668354E-1
8.654474738E0,-1.088981628E-1,-7.952842712E-1,-5.583124161E-1
8.674406092E0,2.876806259E-2,-7.860064507E-1,-5.199893713E-1
8.694278644E0,1.507706642E-1,-7.643036842E-1,-4.438118935E-1
8.714202654E0,1.584105492E-1,-6.317028999E-1,-3.300113678E-1
8.734078279E0,1.219382286E-1,-5.158286095E-1,-2.508871555E-1
8.753972446E0,1.507949829E-2,-4.720110893E-1,-1.111178398E-1
8.773866613E0,-2.841234207E-2,-3.850808144E-1,1.992917061E-2
8.793742863E0,7.953023911E-2,-2.948646545E-1,-6.635785103E-2
8.813632446E0,2.021560669E-1,-2.612118721E-1,-1.861417294E-1
8.833531665E0,7.368850708E-2,-1.532239914E-1,-1.031281948E-1
8.853392238E0,-1.052927971E-1,1.449136734E-1,-4.926919937E-2
8.873318019E0,-1.394739151E-1,3.838272095E-1,-1.742633581E-1
8.893191769E0,-2.109208107E-1,3.448953629E-1,-1.589367390E-1
8.913099581E0,-3.978939056E-1,2.068853378E-1,7.846188545E-2
8.932983644E0,-2.908658981E-1,1.958293915E-1,-9.690761566E-3
8.952866456E0,1.439542770E-1,4.178590775E-1,-2.749525309E-1
8.972745571E0,5.580368042E-1,4.717369080E-1,-4.775135517E-1
8.992660206E0,6.062946320E-1,3.332118988E-1,-3.264516592E-1
9.012538383E0,4.777793884E-1,3.420143127E-1,-2.113739252E-1
9.032444165E0,6.196193695E-1,3.521308899E-1,-4.225392938E-1
9.052353540E0,9.519581795E-1,3.633460999E-1,-3.939115405E-1
9.072243175E0,1.031225681E0,2.410421371E-1,-3.495699763E-1
9.092132186E0,7.436389923E-1,2.505874634E-2,-2.438870668E-1
9.112009633E0,2.682023048E-1,-2.400817871E-1,-9.293019772E-2
9.131894790E0,-3.841161728E-2,-3.395342827E-1,-7.613945007E-2
9.151796352E0,-1.449031830E-1,-1.967740059E-1,-4.790902138E-2
9.171666144E0,-1.218667030E-1,-3.845787048E-2,5.760848522E-2
9.191554842E0,-1.453685760E-1,4.772233963E-2,2.275751829E-1
9.211460779E0,-2.015466690E-1,1.406083107E-1,3.765585423E-1
9.231344842E0,-2.349967957E-1,2.122302055E-1,4.304568768E-1
9.251248956E0,-1.854739189E-1,2.660026550E-1,4.320981503E-1
9.271157394E0,-2.830824852E-1,3.284149170E-1,6.013920307E-1
9.291023904E0,-4.200496674E-1,3.622641563E-1,7.543145418E-1
9.310902758E0,-4.668817520E-1,4.290313721E-1,7.411459088E-1
9.330818644E0,-4.218702316E-1,5.070490837E-1,6.930271983E-1
9.350708123E0,-2.255053520E-1,5.509138107E-1,6.089101434E-1
9.370582446E0,-2.653121948E-3,6.147623062E-1,4.436582327E-1
9.390486873E0,1.853055954E-1,6.455392838E-1,3.131498694E-1
9.410359373E0,2.674455643E-1,5.571889877E-1,2.262867093E-1
9.430257602E0,1.505622864E-1,4.787130356E-1,1.061185598E-1
9.450147654E0,5.652427673E-3,5.336537361E-1,1.389875412E-1
9.470066040E0,-1.243805885E-1,5.814528465E-1,1.859933138E-1
9.489958644E0,-2.313141823E-1,4.978690147E-1,2.780665755E-1
9.509843748E0,-3.250880241E-1,4.030957222E-1,3.217399120E-1
9.529740936E0,-2.496814728E-1,3.671908379E-1,1.491614580E-1
9.549607446E0,-5.715513229E-2,2.804470062E-1,-5.629181862E-3
9.569522081E0,7.076311111E-2,7.609987259E-2,-1.250336170E-1
9.589419998E0,-2.505016327E-2,-1.637907028E-1,-1.878939867E-1
9.609286717E0,-1.129617691E-1,-3.057465553E-1,-1.617598534E-2
9.629201144E0,-1.492190361E-1,-2.206907272E-1,1.337157488E-1
9.649098331E0,-1.813621521E-1,-1.619939804E-1,1.175707579E-1
9.668950154E0,-2.501449585E-1,-2.136101723E-1,1.260850430E-1
9.688884165E0,-2.760653496E-1,-1.638622284E-1,1.813765764E-1
9.708737654E0,-3.533315659E-1,-7.875490189E-2,1.124215126E-1
9.728644113E0,-4.867148399E-1,-1.094942093E-1,6.402850151E-2
9.748530675E0,-7.858800888E-1,-2.816867828E-1,8.196365833E-2
9.768437811E0,-1.003815174E0,-4.530863762E-1,8.196747303E-2
9.788359790E0,-1.004745483E0,-4.783968925E-1,4.751682281E-3
9.808262811E0,-9.497451782E-1,-4.137306213E-1,-4.533350468E-2
9.828112081E0,-1.075594902E0,-3.853902817E-1,6.782329082E-2
9.848003436E0,-1.269460678E0,-4.066972733E-1,2.122528553E-1
9.867874998E0,-1.201861382E0,-5.019850731E-1,1.780678034E-1
9.887756821E0,-9.443764687E-1,-5.532937050E-1,8.772456646E-2
9.907674894E0,-7.830181122E-1,-6.497840881E-1,1.884876490E-1
9.927542654E0,-6.194491386E-1,-8.227815628E-1,2.000284195E-1
9.947474946E0,-3.496222496E-1,-8.836774826E-1,1.584329605E-1
9.967327342E0,-6.955099106E-2,-7.580537796E-1,2.665765285E-1
9.987235311E0,1.696829796E-1,-5.071778297E-1,2.290682793E-1
1.000714000E1,3.439102173E-1,-2.411408424E-1,8.372926712E-2
1.002702448E1,4.195675850E-1,-1.621394157E-1,3.407979012E-2
1.004693474E1,4.128031731E-1,-2.184882164E-1,2.920484543E-2
1.006677463E1,3.662858009E-1,-2.310733795E-1,-5.622839928E-2
1.008668640E1,3.227295876E-1,-1.256113052E-1,-1.891460419E-1
1.010656036E1,2.773537636E-1,7.819271088E-2,-3.121476173E-1
1.012644974E1,1.135535240E-1,1.039600372E-2,-3.464872837E-1
1.014636323E1,4.168033600E-3,-2.697381973E-1,-2.863488197E-1
1.016625646E1,2.026977539E-1,-3.641958237E-1,-2.071323395E-1
1.018616338E1,6.178851128E-1,-2.921018600E-1,-2.450454235E-1
1.020602984E1,9.270567894E-1,-1.581773758E-1,-3.539047241E-1
1.022591703E1,1.072062492E0,-4.969263077E-2,-4.117672443E-1
1.024582708E1,1.051741600E0,-8.814239502E-2,-4.186201096E-1
1.026570937E1,1.029505730E0,-8.919000626E-2,-4.125409126E-1
1.028559734E1,9.852843285E-1,-1.202630997E-1,-5.181593895E-1
1.030548703E1,9.775700569E-1,-1.199979782E-1,-4.965071678E-1
1.032538906E1,1.045176983E0,-1.451997757E-1,-4.097213745E-1
1.034530682E1,1.096264362E0,-1.978874207E-2,-3.561503887E-1
1.036521932E1,1.075761318E0,2.020721436E-1,-2.474005222E-1
1.038505849E1,1.085162163E0,3.536643982E-1,-2.596745491E-1
1.040496979E1,1.116604805E0,4.160184860E-1,-3.257446289E-1
1.042488135E1,1.109799385E0,4.794311523E-1,-2.675571442E-1
1.044472693E1,1.049448013E0,5.115156174E-1,-2.982935905E-1
1.046464151E1,9.294853210E-1,6.211194992E-1,-3.893028498E-1
1.048453146E1,7.331213951E-1,6.871747971E-1,-3.716512918E-1
1.050446396E1,5.081958771E-1,5.897655487E-1,-2.665002346E-1
1.052434916E1,4.109611511E-1,5.057344437E-1,-2.373052835E-1
1.054426448E1,3.428235054E-1,4.467849731E-1,-1.599758863E-1
1.056408146E1,1.779088974E-1,4.685420990E-1,4.238283634E-2
1.058401120E1,1.590251923E-2,4.601917267E-1,1.553784609E-1
1.060389328E1,-7.905626297E-2,4.002695084E-1,3.002920151E-1
1.062376276E1,-2.228751183E-1,3.183813095E-1,4.976000786E-1
1.064368104E1,-2.863125801E-1,2.899141312E-1,5.091420412E-1
1.066356057E1,-1.750674248E-1,2.940807343E-1,3.908468485E-1
1.068344864E1,-7.719516754E-3,2.457017899E-1,2.890340090E-1
1.070332401E1,2.694606781E-2,1.088066101E-1,1.863628626E-1
1.072323635E1,1.688337326E-2,2.995681763E-2,1.217644215E-1
1.074319239E1,8.150768280E-2,4.750251770E-2,4.211652279E-2
1.076301109E1,1.453866959E-1,1.197052002E-2,-4.313886166E-2
1.078291140E1,1.503238678E-1,4.330635071E-3,-3.597223759E-2
1.080280823E1,1.384153366E-1,-3.501510620E-2,-2.890634537E-2
1.082267344E1,1.266512871E-1,-5.644893646E-2,-9.731471539E-2
1.084259687E1,1.115298271E-1,-7.877349854E-4,-9.829485416E-2
1.086248354E1,6.997537613E-2,1.217021942E-1,-3.021872044E-2
1.088237698E1,-5.004262924E-2,1.340885162E-1,2.141714096E-3
1.090227781E1,-1.869750023E-1,1.267814636E-2,4.055368900E-2
1.092216885E1,-2.668328285E-1,-3.204727173E-2,1.293987036E-1
1.094203797E1,-2.645845413E-1,-5.119037628E-2,1.088024378E-1
1.096195021E1,-2.253146172E-1,-2.774810791E-2,1.087545156E-1
1.098182078E1,-2.014365196E-1,1.775741577E-2,7.742273808E-2
1.100171047E1,-2.012224197E-1,1.007709503E-1,5.903458595E-2
1.102160083E1,-1.420359612E-1,1.695709229E-1,1.134004593E-1
1.104149526E1,-9.239768982E-2,1.447010040E-1,8.864748478E-2
1.106140146E1,-5.943155289E-2,8.289527893E-2,8.409690857E-2
1.108126682E1,-7.189083099E-2,5.554962158E-2,2.097896338E-1
1.110118052E1,-4.637241364E-2,7.669162750E-2,2.985463142E-1
1.112106042E1,-7.175302505E-2,8.848762512E-2,3.008855581E-1
1.114096875E1,-8.839702606E-2,4.038906097E-2,1.863079071E-1
1.116085651E1,-1.108131409E-1,-8.516311646E-4,1.738309860E-2
1.118072114E1,-8.670425415E-2,-5.991172791E-2,-1.194704771E-1
1.120063646E1,-5.243635178E-2,-1.266336441E-1,-9.251737595E-2
1.122050448E1,-3.369235992E-2,-1.949071884E-1,-3.846979141E-2
1.124042021E1,-2.628898621E-2,-2.772426605E-1,-1.347980499E-1
1.126030094E1,-5.146884918E-2,-2.971115112E-1,-1.658771038E-1
1.128022552E1,-8.886718750E-2,-2.561407089E-1,-1.227471828E-1
1.130012281E1,-1.429181099E-1,-1.824769974E-1,-1.220805645E-1
1.131996651E1,-1.445422173E-1,-1.658029556E-1,-6.964612007E-2
1.133988984E1,-7.906723022E-2,-2.448205948E-1,5.614972115E-2
1.135975354E1,-2.629089355E-2,-2.579326630E-1,8.285880089E-2
1.137964401E1,4.953861237E-3,-1.854629517E-1,2.404403687E-2
1.139956172E1,7.908821106E-3,-1.377897263E-1,5.856037140E-2
1.141944073E1,9.054660797E-3,-1.600885391E-1,6.186604500E-2
1.143931646E1,3.810358047E-2,-1.997470856E-1,3.069376945E-2
1.145921265E1,6.838226318E-2,-2.083845139E-1,3.359913826E-2
1.147912437E1,1.563854218E-1,-1.528511047E-1,4.568052292E-2
1.149899208E1,2.189264297E-1,-1.620721817E-1,-1.072237492E-1
1.151892166E1,2.108669281E-1,-2.166709900E-1,-2.111570835E-1
1.153877140E1,2.196388245E-1,-2.422327995E-1,-1.725664139E-1
1.155868729E1,2.522912025E-1,-2.120914459E-1,-1.794388294E-1
1.157858510E1,3.464446068E-1,-1.817383766E-1,-2.772130966E-1
1.159845328E1,4.501800537E-1,-1.652975082E-1,-2.449703217E-1
1.161837953E1,4.852285385E-1,-1.338539124E-1,-1.802983284E-1
1.163824953E1,4.422979355E-1,-7.589054108E-2,-1.388573647E-1
1.165816984E1,4.357681274E-1,6.564235687E-2,-1.557993889E-1
1.167804125E1,4.219288826E-1,1.411151886E-1,-1.488809586E-1
1.169794114E1,3.019843102E-1,1.519136429E-1,-1.149220467E-1
1.171783104E1,1.586022377E-1,1.985836029E-1,-7.823991776E-2
1.173769239E1,5.734109879E-2,2.447004318E-1,-1.391296387E-1
1.175760885E1,-1.331853867E-2,2.310733795E-1,-3.936719894E-2
1.177750198E1,-7.249498367E-2,1.606597900E-1,5.800890923E-2
1.179738390E1,-5.382633209E-2,1.139707565E-1,2.500844002E-2
1.181727823E1,6.145000458E-3,1.655797958E-1,-1.703977585E-3
1.183718870E1,-4.049205780E-2,2.221174240E-1,6.379628181E-2
1.185705401E1,-1.962141991E-1,1.586217880E-1,1.197228432E-1
1.187693484E1,-2.924065590E-1,1.089782715E-1,1.367616653E-2
1.189686208E1,-2.037501335E-1,1.534242630E-1,-5.342602730E-2
1.191673192E1,-1.050577164E-1,2.064971924E-1,-4.178047180E-3
1.193663135E1,-3.762626648E-2,1.528320312E-1,4.320287704E-2
1.195651755E1,2.574920654E-5,6.119632721E-2,4.908204079E-2
1.197640693E1,6.221246719E-2,-2.869701385E-2,4.283738136E-2
1.199630583E1,1.398048401E-1,-2.685356140E-2,5.469322205E-2
1.201624640E1,1.872472763E-1,1.209449768E-2,-2.258992195E-2
1.203609359E1,1.869845390E-1,3.010940552E-2,-3.126382828E-2
1.205598276E1,1.724758148E-1,-2.689933777E-2,8.289289474E-2
1.207588385E1,1.066613197E-1,-9.799766541E-2,1.552813053E-1
1.209574198E1,8.709192276E-2,-1.026296616E-1,1.367378235E-1
1.211562682E1,1.102900505E-1,-6.910324097E-2,8.425807953E-2
1.213553786E1,4.927301407E-2,-3.417396545E-2,4.687809944E-2
1.215542239E1,-6.302118301E-2,-1.079559326E-2,-2.930140495E-2
1.217531307E1,-1.886005402E-1,-3.364086151E-2,-6.006169319E-2
1.219524349E1,-3.214130402E-1,-1.554393768E-2,-5.421304703E-2
1.221509792E1,-4.204425812E-1,3.536796570E-2,-2.493262291E-2
1.223497911E1,-4.245104790E-1,1.000480652E-1,6.832027435E-2
1.225490364E1,-3.894486427E-1,8.934879303E-2,1.895880699E-1
1.227478521E1,-2.799711227E-1,9.204864502E-2,2.843627930E-1
1.229467479E1,-1.903476715E-1,7.769584656E-2,3.574151993E-1
1.231454578E1,-1.669907570E-1,5.890369415E-2,4.089541435E-1
1.233448656E1,-1.370248795E-1,5.761241913E-2,3.833451271E-1
1.235438432E1,-5.993938446E-2,5.873107910E-2,2.763569355E-1
1.237427745E1,2.825307846E-2,8.253192902E-2,2.181603909E-1
1.239414745E1,4.936599731E-2,9.424972534E-2,1.370313168E-1
1.241401515E1,4.446554184E-2,6.213188171E-2,1.543760300E-3
1.243394271E1,2.906990051E-2,3.650951385E-2,-8.619141579E-2
1.245381995E1,2.075195312E-3,3.832054138E-2,-6.689381599E-2
1.247371771E1,-8.758449554E-2,4.134559631E-2,-5.232024193E-2
1.249359521E1,-1.136689186E-1,3.692626953E-2,-9.406256676E-2
1.251347370E1,-4.035329819E-2,-1.560688019E-2,-6.959819794E-2
1.253337672E1,-6.329059601E-3,-6.242656708E-2,-6.854867935E-2
1.255325818E1,-7.465696335E-2,-1.090850830E-1,-1.316850185E-1
1.257316146E1,-1.598405838E-1,-8.845615387E-2,-1.043245792E-1
1.259306896E1,-1.782021523E-1,-7.732868195E-2,-8.347034454E-2
1.261292281E1,-7.848215103E-2,-8.416461945E-2,-1.117799282E-1
1.263282562E1,-1.588058472E-2,-8.254146576E-2,-1.277110577E-1
1.265271500E1,-2.241516113E-2,-7.005977631E-2,-7.205557823E-2
1.267262812E1,2.332258224E-2,-3.573417664E-2,1.626753807E-2
1.269248208E1,1.224632263E-1,-5.383491516E-3,1.406874657E-1
1.271242745E1,2.549214363E-1,-5.728721619E-3,1.861221790E-1
1.273232661E1,3.843913078E-1,5.196571350E-3,1.915233135E-1
1.275227312E1,4.004559517E-1,1.764678955E-2,1.412165165E-1
1.277206588E1,3.039908409E-1,7.742977142E-2,5.357837677E-2
1.279198271E1,1.796836853E-1,1.290111542E-1,-4.469633102E-2
1.281187354E1,1.333780289E-1,9.438991547E-2,-1.221930981E-1
1.283176989E1,1.875948906E-1,-1.242637634E-3,-1.845769882E-1
1.285164068E1,2.017025948E-1,-1.680088043E-2,-1.694939137E-1
1.287154411E1,1.588068008E-1,-1.055431366E-2,-2.294878960E-1
1.289141682E1,4.141187668E-2,-3.240776062E-2,-2.809185982E-1
1.291129958E1,-7.349491119E-3,-9.028625488E-2,-2.917082310E-1
1.293122927E1,-1.557826996E-3,-1.570930481E-1,-2.603275776E-1
1.295111114E1,6.272792816E-3,-1.513080597E-1,-1.674308777E-1
1.297100323E1,8.383655548E-2,-1.333808899E-1,-5.979204178E-2
1.299089614E1,1.636161804E-1,-1.298570633E-1,3.378629684E-3
1.301077984E1,1.785869598E-1,-8.401298523E-2,-1.087927818E-2
1.303066646E1,1.570210457E-1,-5.470371246E-2,-8.163881302E-2
1.305054042E1,6.547117233E-2,-7.704067230E-2,-1.270413399E-1
1.307044182E1,-4.964256287E-2,-8.624649048E-2,-9.611010551E-2
1.309036036E1,-1.076455116E-1,-2.215766907E-2,-8.513092995E-2
1.311022875E1,-5.517005920E-4,-6.026268005E-3,-1.860578060E-1
1.313011885E1,1.253380775E-1,-1.760005951E-2,-2.071490288E-1
1.315002620E1,1.487207413E-2,-2.215862274E-2,-2.096891403E-2
1.316991692E1,-8.537292480E-2,8.293151855E-3,5.187296867E-2
1.318980276E1,-4.464435577E-2,1.683998108E-2,-1.620221138E-2
1.320970213E1,5.760097504E-2,1.554489136E-2,-5.183172226E-2
1.322958937E1,2.386569977E-2,2.161502838E-2,-4.401445389E-2
1.324947776E1,-1.074528694E-1,2.143859863E-2,-6.507921219E-2
1.326936458E1,-1.241149902E-1,3.575420380E-2,-1.166279316E-1
1.328926167E1,-4.243373871E-3,4.084110260E-2,-7.192564011E-2
1.330918271E1,8.765220642E-2,4.270744324E-2,3.828716278E-2
1.332903859E1,7.435989380E-2,6.500625610E-2,5.158782005E-2
1.334894812E1,2.091073990E-2,8.998584747E-2,1.112864017E-1
1.336882370E1,-2.192687988E-2,8.418655396E-2,2.162940502E-1
1.338869578E1,-5.488348007E-2,7.157802582E-2,2.331008911E-1
1.340862500E1,-5.612421036E-2,2.974414825E-2,1.862399578E-1
1.342849094E1,-1.453204155E-1,-2.225112915E-2,1.178724766E-1
1.344841120E1,-2.446975708E-1,1.709461212E-2,1.370749474E-1
1.346829489E1,-2.766051292E-1,1.570034027E-2,7.118105888E-2
1.348821495E1,-2.399044037E-1,-5.953788757E-2,-2.014482021E-2
1.350805338E1,-1.988792419E-1,-7.901191711E-2,1.427030563E-2
1.352796140E1,-1.938309669E-1,-3.414726257E-2,1.015352011E-1
1.354786844E1,-2.304463387E-1,2.484703064E-2,7.773733139E-2
1.356772015E1,-2.187080383E-1,1.036891937E-1,-7.836818695E-4
1.358762526E1,-9.968328476E-2,1.932020187E-1,-7.197773457E-2
1.360754406E1,2.927970886E-2,2.293081284E-1,-7.543635368E-2
1.362743489E1,-3.046512604E-2,2.002210617E-1,-1.460433006E-2
1.364729151E1,-1.465396881E-1,1.517801285E-1,9.479999542E-2
1.366722958E1,-1.184430122E-1,1.309814453E-1,1.883413792E-1
1.368710854E1,8.014917374E-2,8.677196503E-2,1.979805231E-1
1.370700229E1,3.158888817E-1,3.396511078E-2,1.794648170E-1
1.372690448E1,3.910303116E-1,-5.513381958E-2,1.549348831E-1
1.374675140E1,2.929310799E-1,-9.668445587E-2,1.779010296E-1
1.376665594E1,8.030796051E-2,-7.708740234E-2,1.550256014E-1
1.378654463E1,-5.980587006E-2,-4.502964020E-2,9.174978733E-2
1.380644005E1,-8.094930649E-2,-4.071998596E-2,1.669394970E-2
1.382636526E1,-2.789735794E-2,-8.943462372E-2,-6.061184406E-2
1.384624526E1,-1.585531235E-2,-1.247844696E-1,-9.572076797E-2
1.386615177E1,3.145980835E-2,-1.148824692E-1,-1.316684484E-1
1.388601781E1,2.966308594E-2,-9.060668945E-2,-1.250655651E-1
1.390590974E1,3.971672058E-2,-5.284500122E-2,-1.171538830E-1
1.392577526E1,4.760980606E-2,-8.536338806E-3,-1.325674057E-1
1.394566745E1,6.145000458E-3,-3.004074097E-3,-1.424343586E-1
1.396556552E1,2.496719360E-2,-9.326934814E-3,-9.421050549E-2
1.398548828E1,8.570051193E-2,-2.240848541E-2,-8.097493649E-2
1.400537969E1,1.245822906E-1,3.511714935E-2,-4.751098156E-2
1.402524802E1,3.255701065E-2,4.791450500E-2,2.315998077E-3
1.404519151E1,-4.671907425E-2,4.683494568E-2,1.993787289E-2
1.406501953E1,-6.870603561E-2,2.741527557E-2,2.738416195E-2
1.408490943E1,-8.092355728E-2,3.716945648E-2,-1.271367073E-3
1.410482187E1,-1.275401115E-1,5.757713318E-2,-7.388448715E-2
1.412469823E1,-1.754822731E-1,7.826995850E-2,-4.349219799E-2
1.414458807E1,-1.848273277E-1,5.333614349E-2,-3.680336475E-2
1.416447088E1,-1.694049835E-1,2.044677734E-3,-6.153762341E-2
1.418437338E1,-1.399307251E-1,-2.678680420E-2,-4.275798798E-3
1.420428823E1,-7.370424271E-2,-1.771450043E-2,7.436287403E-2
1.422418354E1,4.884958267E-2,-2.639293671E-2,1.189564466E-1
1.424406906E1,1.230955124E-1,-2.101612091E-2,8.104264736E-2
1.426394635E1,1.339149475E-1,1.849365234E-2,7.439196110E-2
1.428386651E1,1.720652580E-1,4.268932343E-2,7.515215874E-2
1.430374125E1,2.325139046E-1,5.695343018E-2,9.280443192E-3
1.432361328E1,2.805833817E-1,3.979873657E-2,-1.664400101E-2
1.434353870E1,2.921810150E-1,7.110309601E-2,-2.967107296E-2
1.436341005E1,2.845273018E-1,1.283092499E-1,-1.160341501E-1
1.438329963E1,2.479901314E-1,1.383218765E-1,-1.767697334E-1
1.440318021E1,2.197651863E-1,1.440782547E-1,-1.463268995E-1
1.442307786E1,2.186999321E-1,1.394796371E-1,-1.240739822E-1
1.444296292E1,2.312312126E-1,1.417160034E-1,-7.448184490E-2
1.446289344E1,1.753921509E-1,1.619672775E-1,-8.198142052E-3
1.448275354E1,1.633820534E-1,1.611623764E-1,2.227401733E-2
1.450265229E1,1.118059158E-1,1.487922668E-1,-9.945511818E-3
1.452256114E1,7.616519928E-3,1.662130356E-1,-1.293671131E-2
1.454243917E1,-5.973339081E-2,1.661109924E-1,9.297251701E-3
1.456235687E1,-7.265949249E-2,1.251945496E-1,2.833616734E-2
1.458226234E1,-6.695985794E-2,7.076072693E-2,5.586886406E-2
1.460209984E1,-7.590675354E-2,6.340885162E-2,7.516515255E-2
1.462199875E1,1.100015640E-2,4.982185364E-2,6.631624699E-2
1.464190375E1,1.020932198E-1,9.642601013E-3,5.469048023E-2
1.466178469E1,1.152114868E-1,-6.485939026E-2,4.105901718E-2
1.468168739E1,1.104779243E-1,-9.148693085E-2,-8.924007416E-4
1.470158635E1,1.247773170E-1,-6.639957428E-2,-5.591082573E-2
1.472145140E1,1.366868019E-1,-5.158519745E-2,-1.579372883E-1
1.474136010E1,1.200671196E-1,-5.892753601E-2,-1.400623322E-1
1.476124620E1,7.683372498E-2,-1.119718552E-1,-9.233403206E-2
1.478114760E1,1.214838028E-2,-1.044673920E-1,-1.346349716E-1
1.480103698E1,-5.464696884E-2,-7.453918457E-2,-1.684813499E-1
1.482092739E1,-5.439662933E-2,-1.665687561E-2,-1.273121834E-1
1.484083745E1,-1.715898514E-2,-5.935955048E-2,-1.028488874E-1
1.486068646E1,-1.778316498E-2,-1.343021393E-1,-4.760432243E-2
1.488062135E1,-5.873298645E-2,-1.240568161E-1,6.492269039E-2
1.490047614E1,-1.100378036E-1,-8.381366730E-2,9.193944931E-2
1.492039396E1,-1.376733780E-1,-3.819942474E-2,7.065677643E-2
1.494027901E1,-1.746964455E-1,-6.319046021E-3,9.742093086E-2
1.496017099E1,-2.374734879E-1,-1.684570312E-2,1.497843266E-1
1.498007271E1,-3.205008507E-1,-1.471900940E-2,1.256053448E-1
1.499996078E1,-4.019236565E-1,-1.355934143E-2,9.690594673E-2
1.501984453E1,-4.414548874E-1,4.910278320E-2,1.329994202E-1
1.503972578E1,-3.794698715E-1,6.216621399E-2,1.299421787E-1
1.505962536E1,-2.721590996E-1,2.216243744E-2,1.062300205E-1
1.507951833E1,-1.542673111E-1,4.633522034E-2,1.504824162E-1
1.509941146E1,-9.052658081E-2,8.404541016E-2,9.880185127E-2
1.511931453E1,-7.672452927E-2,9.534358978E-2,9.863400459E-2
1.513921333E1,-8.691072464E-2,1.294641495E-1,9.141635895E-2
1.515907854E1,-9.614086151E-2,1.167240143E-1,4.933452606E-2
1.517895771E1,-1.545567513E-1,5.626678467E-3,4.373383522E-2
1.519888354E1,-1.726083755E-1,-1.304388046E-1,4.747962952E-2
1.521875745E1,-1.912188530E-1,-1.895084381E-1,-5.539345741E-2
1.523864161E1,-1.339511871E-1,-2.279043198E-1,-6.494593620E-2
1.525853693E1,-3.148555756E-3,-2.328348160E-1,-2.175831795E-2
1.527842906E1,6.865525246E-2,-2.063407898E-1,2.360463142E-2
1.529833989E1,7.872581482E-4,-2.143993378E-1,7.714200020E-2
1.531823010E1,-1.015605927E-1,-1.897459030E-1,1.268382072E-1
1.533810088E1,-1.677327156E-1,-2.287740707E-1,1.148068905E-1
1.535800156E1,-1.197323799E-1,-2.078075409E-1,9.989619255E-2
1.537789239E1,-3.130102158E-2,-1.647481918E-1,1.248373985E-1
1.539779302E1,-3.677845001E-3,-7.239913940E-2,1.515569687E-1
1.541767349E1,1.082372665E-2,-8.994007111E-2,1.142196655E-1
1.543757458E1,-3.991127014E-3,-1.094741821E-1,5.577898026E-2
1.545747489E1,4.357337952E-3,-1.095762253E-1,2.006030083E-2
1.547733818E1,3.802585602E-2,-9.568595886E-2,2.961325645E-2
1.549723219E1,1.287145615E-1,-6.791591644E-2,1.250910759E-2
1.551712427E1,2.218372822E-1,-6.384086609E-2,-5.474972725E-2
1.553701036E1,2.900764942E-1,-8.562755585E-2,-9.580469131E-2
1.555692687E1,2.975709438E-1,-1.051549911E-1,-8.617043495E-2
1.557681021E1,2.981097698E-1,-9.971714020E-2,-6.574964523E-2
1.559671406E1,2.728917599E-1,-8.306217194E-2,-8.148956299E-2
1.561657515E1,3.041584492E-1,2.101707458E-2,-8.579730988E-2
1.563647021E1,3.062403202E-1,7.095241547E-2,-9.680151939E-2
1.565640088E1,3.374125957E-1,9.392070770E-2,-9.862565994E-2
1.567626166E1,3.528354168E-1,1.057605743E-1,-1.920771599E-2
1.569619437E1,3.492510319E-1,1.244201660E-1,2.835392952E-2
1.571605547E1,3.224911690E-1,1.709308624E-1,-1.431369781E-2
1.573593974E1,3.002204895E-1,2.570409775E-1,-3.202342987E-2
1.575583505E1,3.070120811E-1,3.671627045E-1,-1.409053802E-2
1.577573411E1,3.443698883E-1,3.733654022E-1,3.543829918E-2
1.579562010E1,3.804168701E-1,3.331375122E-1,-7.158994675E-3
1.581551068E1,4.098033905E-1,3.098945618E-1,-1.982283592E-2
1.583540906E1,4.337210655E-1,2.836494446E-1,3.881835938E-2
1.585527515E1,4.045298100E-1,2.399616241E-1,3.420162201E-2
1.587523734E1,3.671879768E-1,1.818294525E-1,1.390218735E-3
1.589509479E1,3.429555893E-1,1.321277618E-1,-9.000778198E-3
1.591497495E1,3.473014832E-1,1.212463379E-1,3.172254562E-2
1.593486359E1,3.355751038E-1,1.407260895E-1,-1.344370842E-2
1.595475453E1,3.255867958E-1,2.119874954E-1,-6.491112709E-2
1.597465260E1,2.883124352E-1,2.263288498E-1,-8.597087860E-2
1.599454844E1,2.545514107E-1,1.952114105E-1,-1.231553555E-1
1.601441318E1,2.051620483E-1,1.757011414E-1,-1.953704357E-1
1.603431000E1,1.715693474E-1,1.857519150E-1,-1.810827255E-1
1.605424797E1,1.149616241E-1,1.133451462E-1,-1.601545811E-1
1.607408568E1,2.409839630E-2,2.596187592E-2,-1.216032505E-1
1.609398942E1,-6.680965424E-3,1.866245270E-2,-1.074473858E-1
1.611389375E1,-5.266046524E-2,8.924961090E-2,-1.703153849E-1
1.613378000E1,-1.283993721E-1,1.103267670E-1,-1.880482435E-1
1.615364292E1,-1.699194908E-1,1.302328110E-1,-1.533592939E-1
1.617354692E1,-2.444472313E-1,1.705989838E-1,-9.889340401E-2
1.619344161E1,-3.294558525E-1,1.548891068E-1,-7.043814659E-2
1.621333953E1,-4.135222435E-1,1.359815598E-1,-4.087650776E-2
1.623321932E1,-5.040440559E-1,1.118612289E-1,2.249729633E-2
1.625313281E1,-5.309023857E-1,8.335113525E-4,-1.903510094E-2
1.627302271E1,-5.348806381E-1,-1.446619034E-1,1.240968704E-4
1.629290182E1,-5.380005836E-1,-2.521667480E-1,8.825659752E-2
1.631277192E1,-5.031733513E-1,-2.882556915E-1,1.044114828E-1
1.633269781E1,-4.262614250E-1,-2.832193375E-1,6.962668896E-2
1.635256401E1,-3.215680122E-1,-2.222747803E-1,9.720468521E-2
1.637245682E1,-2.441291809E-1,-2.339382172E-1,9.060227871E-2
1.639240286E1,-2.250318527E-1,-2.899799347E-1,5.749738216E-2
1.641227745E1,-2.187666893E-1,-2.849750519E-1,6.155133247E-2
1.643218911E1,-2.104687691E-1,-2.690916061E-1,5.437231064E-2
1.645202739E1,-2.013392448E-1,-2.554473877E-1,3.811120987E-3
1.647194911E1,-2.497038841E-1,-2.460823059E-1,-6.988608837E-2
1.649186073E1,-2.249922752E-1,-1.881656647E-1,-5.469644070E-2
1.651172771E1,-1.702609062E-1,-1.440935135E-1,-1.092042923E-1
1.653160401E1,-1.080441475E-1,-1.259069443E-1,-1.447476149E-1
1.655148578E1,-3.687953949E-2,-2.458000183E-2,-1.482881308E-1
1.657140312E1,-6.037569046E-2,3.136825562E-2,-1.831413507E-1
1.659128265E1,-1.504516602E-1,1.105213165E-2,-1.590573788E-1
1.661117463E1,-1.436491013E-1,-2.262592316E-2,-1.711957455E-1
1.663105099E1,-6.433725357E-2,-3.201770782E-2,-1.246914864E-1
1.665095755E1,-7.264614105E-3,-2.682495117E-2,7.813572884E-3
1.667085406E1,1.071500778E-2,-3.476715088E-2,8.616220951E-2
1.669075416E1,-1.762866974E-3,-6.081008911E-2,1.103298664E-1
1.671060958E1,-4.472160339E-2,-1.130208969E-1,2.042969465E-1
1.673051765E1,-1.174798012E-1,-1.699695587E-1,3.056610823E-1
1.675041792E1,-1.925935745E-1,-2.522182465E-1,3.648061752E-1
1.677033583E1,-2.227363586E-1,-3.180446625E-1,3.722286224E-1
1.679024844E1,-2.206506729E-1,-3.845243454E-1,2.906451225E-1
1.681014896E1,-2.839570045E-1,-4.125823975E-1,2.586266994E-1
1.682998916E1,-3.702635765E-1,-4.714784622E-1,2.034677267E-1
1.684988625E1,-4.636840820E-1,-4.241895676E-1,1.798647642E-1
1.686975963E1,-4.679367542E-1,-3.049077988E-1,1.589657068E-1
1.688966052E1,-3.570048809E-1,-2.173118591E-1,1.186254025E-1
1.690955500E1,-2.292163372E-1,-1.703395844E-1,6.158506870E-2
1.692945854E1,-1.570172310E-1,-9.981822968E-2,7.772803307E-3
1.694931864E1,-5.161428452E-2,-1.720905304E-2,-2.823042870E-2
1.696924776E1,6.880426407E-2,6.060504913E-2,-1.280927658E-1
1.698911943E1,1.288638115E-1,1.028709412E-1,-1.928962469E-1
1.700902271E1,1.606931686E-1,6.548213959E-2,-2.304561138E-1
1.702891375E1,1.578407288E-1,2.536392212E-2,-2.231204510E-1
1.704881021E1,1.312110424E-1,7.820129395E-2,-2.059363723E-1
1.706866708E1,1.876761913E-1,1.677331924E-1,-2.211951613E-1
1.708858666E1,2.333207130E-1,2.029142380E-1,-2.026897073E-1
1.710846922E1,1.927464008E-1,1.495189667E-1,-2.066159248E-1
1.712836844E1,9.238338470E-2,1.410026550E-1,-1.733019948E-1
1.714827526E1,6.324052811E-3,1.434049606E-1,-1.252747178E-1
1.716817406E1,-6.995296478E-2,1.636495590E-1,-1.104391217E-1
1.718803818E1,-1.365418434E-1,1.648073196E-1,-1.130625010E-1
1.720794271E1,-2.523739338E-1,1.393203735E-1,-5.554318428E-3
1.722784437E1,-3.249142170E-1,1.088514328E-1,4.400956631E-2
1.724769380E1,-2.633624077E-1,1.252069473E-1,-3.844785690E-2
1.726761573E1,-1.264848709E-1,1.682748795E-1,-7.083672285E-2
1.728749302E1,5.359959602E-2,1.621026993E-1,-3.477841616E-2
1.730740120E1,1.873855591E-1,1.100749969E-1,-4.497212172E-2
1.732727172E1,1.865272522E-1,5.480957031E-2,-1.138836145E-2
1.734719693E1,1.509907246E-1,6.347656250E-3,-3.989869356E-2
1.736707260E1,1.739752293E-1,-5.825996399E-3,-7.797038555E-2
1.738695854E1,2.545173168E-1,-2.451801300E-2,-1.320418715E-1
1.740687135E1,2.899618149E-1,-5.604076385E-2,-1.694269180E-1
1.742672557E1,2.508745193E-1,-4.833602905E-2,-1.234807968E-1
1.744660989E1,2.415885925E-1,-1.020240784E-2,-1.130316854E-1
1.746650651E1,2.783529758E-1,-2.118968964E-2,-9.639972448E-2
1.748640224E1,2.754683495E-1,-1.627445221E-2,-7.545286417E-2
1.750632088E1,1.792485714E-1,-2.199459076E-2,-7.630997896E-2
1.752623531E1,3.962540627E-2,-4.301071167E-3,-3.364503384E-2
1.754608338E1,-4.271745682E-2,4.925537109E-2,-3.367900848E-2
1.756597901E1,-4.934358597E-2,6.842708588E-2,-2.263718843E-2
1.758585599E1,-3.009271622E-2,7.100009918E-2,-3.845173120E-2
1.760576489E1,-1.311302185E-2,6.403350830E-2,2.307909727E-2
1.762563557E1,-4.925727844E-2,3.464031219E-2,9.652686119E-2
1.764553963E1,-5.580782890E-2,1.873397827E-2,5.149370432E-2
1.766543864E1,-8.167505264E-2,8.876800537E-3,3.103542328E-2
1.768535307E1,-1.380600929E-1,4.764556885E-3,4.825830460E-2
1.770521401E1,-1.559765339E-1,-1.777362823E-2,8.988171816E-2
1.772510390E1,-1.427159309E-1,-4.859733582E-2,8.540499210E-2
1.774502396E1,-1.421320438E-1,-7.339763641E-2,3.854483366E-2
1.776490245E1,-1.287970543E-1,-7.184886932E-2,4.108685255E-2
1.778477505E1,-1.317400932E-1,-6.291007996E-2,6.540900469E-2
1.780471146E1,-1.147320271E-1,-5.797386169E-2,7.138931751E-2
1.782456745E1,-5.637621880E-2,-3.871440887E-2,5.787062645E-2
1.784447052E1,-1.265525818E-2,6.165218353E-2,1.110280752E-1
1.786438495E1,-4.905700684E-3,1.344528198E-1,1.611140966E-1
1.788431120E1,-4.211187363E-3,1.484146118E-1,1.675578952E-1
1.790421297E1,-3.281998634E-2,1.357822418E-1,1.895158291E-1
1.792404802E1,-7.338666916E-2,2.063379288E-1,2.170208097E-1
1.794390307E1,-1.265501976E-1,2.460136414E-1,1.925920844E-1
1.796381177E1,-1.769988537E-1,2.508611679E-1,1.760677695E-1
1.798368526E1,-1.760590076E-1,2.631654739E-1,1.832935214E-1
1.800360614E1,-1.292767525E-1,2.498121262E-1,1.468502879E-1
1.802350594E1,-1.057360172E-1,2.027816772E-1,1.075451374E-1
1.804338146E1,-1.048703194E-1,1.439733505E-1,7.502931356E-2
1.806326078E1,-1.168856621E-1,1.710538864E-1,6.434738636E-2
1.808315948E1,-8.381581306E-2,2.164316177E-1,1.648873091E-2
1.810303255E1,-3.743433952E-2,1.729164124E-1,2.980232239E-4
1.812293411E1,2.484321594E-4,1.156997681E-1,5.495280027E-2
1.814282088E1,5.288362503E-2,1.248321533E-1,7.563126087E-2
1.816271401E1,9.397602081E-2,1.377239227E-1,1.018112898E-1
1.818260812E1,8.250069618E-2,9.167480469E-2,1.497972012E-1
1.820249932E1,-3.195881844E-2,-6.425857544E-3,2.088814378E-1
1.822239937E1,-1.270980835E-1,-1.063842773E-1,2.347510457E-1
1.824231312E1,-1.571543217E-1,-8.343696594E-2,2.304067612E-1
1.826219411E1,-1.886000633E-1,3.543186188E-2,1.969616413E-1
1.828207203E1,-2.438104153E-1,1.477098465E-1,1.710803509E-1
1.830196047E1,-3.612232208E-1,2.157974243E-2,1.369677782E-1
1.832188328E1,-4.048936367E-1,-1.627016068E-1,1.938292980E-1
1.834176708E1,-3.000857830E-1,-1.471652985E-1,2.501755953E-1
1.836166573E1,-2.225806713E-1,-4.185485840E-2,2.458289862E-1
1.838155594E1,-1.521310806E-1,-3.380966187E-2,9.231567383E-2
1.840143068E1,-8.203649521E-2,-1.027688980E-1,2.859783173E-2
1.842130692E1,-8.786439896E-2,-1.582536697E-1,-8.906006813E-3
1.844122552E1,-4.338479042E-2,-1.226339340E-1,-1.384524107E-1
1.846109635E1,2.390789986E-2,-5.756092072E-2,-2.623641491E-1
1.848101234E1,1.591134071E-2,-6.222724915E-2,-3.121767044E-1
1.850091104E1,2.499580383E-3,-1.739339828E-1,-2.900965214E-1
1.852077557E1,5.854153633E-2,-3.640556335E-1,-2.757339478E-1
1.854068844E1,1.912539005E-1,-3.726587296E-1,-3.263338804E-1
1.856058396E1,1.958394051E-1,-2.404985428E-1,-3.285408020E-1
1.858047000E1,2.925252914E-2,-1.244783401E-1,-3.195533752E-1
1.860036354E1,-2.244997025E-1,-9.557247162E-2,-2.750344276E-1
1.862025588E1,-3.908486366E-1,-1.735820770E-1,-2.153288126E-1
1.864014849E1,-3.645105362E-1,-3.153047562E-1,-1.752567291E-1
1.866001229E1,-2.370057106E-1,-3.104639053E-1,-1.320042610E-1
1.867993234E1,-1.756038666E-1,-2.495021820E-1,-1.326813698E-1
1.869981156E1,-2.095389366E-1,-2.533006668E-1,-1.572024822E-1
1.871970896E1,-2.501130104E-1,-3.408317566E-1,-9.502530098E-2
1.873961094E1,-1.536746025E-1,-4.143218994E-1,-6.073617935E-2
1.875948875E1,8.828306198E-2,-3.053932190E-1,-1.451869011E-1
1.877937245E1,3.087606430E-1,-1.352310181E-2,-2.655391693E-1
1.879925349E1,2.552003860E-1,1.083354950E-1,-3.467514515E-1
1.881914594E1,1.042814255E-1,-5.734825134E-2,-2.940280437E-1
1.883903411E1,5.429029465E-2,-2.637348175E-1,-1.111869812E-1
1.885894729E1,1.926407814E-1,-2.355909348E-1,1.690530777E-2
1.887882651E1,5.591564178E-1,-8.606338501E-2,5.434393883E-2
1.889870937E1,8.354120255E-1,2.483272552E-2,2.554059029E-2
1.891860192E1,9.504876137E-1,2.169990540E-2,-4.076218605E-2
1.893852318E1,9.583396912E-1,-5.544662476E-3,-8.978509903E-2
1.895842687E1,8.928136826E-1,6.044673920E-2,-6.354141235E-2
1.897833036E1,8.551516533E-1,1.511297226E-1,-9.829378128E-2
1.899820271E1,7.752389908E-1,2.864999771E-1,-1.372425556E-1
1.901805844E1,5.980653763E-1,2.761516571E-1,-1.131103039E-1
1.903797708E1,4.056439400E-1,2.233152390E-1,-2.665805817E-2
1.905786406E1,1.950020790E-1,1.420097351E-1,-1.287698746E-3
1.907773823E1,3.613328934E-2,1.068572998E-1,-1.420974731E-3
1.909765479E1,-2.273845673E-2,1.532726288E-1,1.403713226E-2
1.911752172E1,-2.595901489E-2,1.435012817E-1,8.780241013E-3
1.913743125E1,-7.644224167E-2,3.968048096E-2,-1.138710976E-2
1.915729922E1,-1.770925522E-1,-1.279735565E-2,3.934836388E-2
1.917720786E1,-1.933150291E-1,-8.311367035E-2,1.773929596E-2
1.919709453E1,-5.946779251E-2,-8.626270294E-2,-2.331471443E-2
1.921698724E1,1.442933083E-1,-3.414154053E-2,-2.374935150E-2
1.923688614E1,3.349142075E-1,4.825592041E-4,-7.244873047E-2
1.925677739E1,4.097747803E-1,5.245876312E-2,-9.002637863E-2
1.927668208E1,3.904542923E-1,8.463096619E-2,-5.996537209E-2
1.929655692E1,3.677597046E-1,4.316902161E-2,-2.040433884E-2
1.931645250E1,3.971886635E-1,4.013061523E-2,-6.024837494E-2
1.933634276E1,3.860316277E-1,4.909515381E-2,-8.898186684E-2
1.935624823E1,3.383026123E-1,8.311939240E-2,-6.095147133E-2
1.937613489E1,1.862955093E-1,1.103963852E-1,-6.453132629E-2
1.939603104E1,-1.695060730E-2,1.535587311E-1,-4.807710648E-2
1.941592864E1,-1.351995468E-1,1.858072281E-1,-1.854157448E-2
1.943581729E1,-1.695551872E-1,2.059307098E-1,1.122903824E-2
1.945569984E1,-1.675348282E-1,1.978311539E-1,7.538938522E-2
1.947561036E1,-1.552228928E-1,2.000503540E-1,8.421611786E-2
1.949546849E1,-1.174707413E-1,2.599639893E-1,7.117366791E-2
1.951536213E1,-5.994558334E-2,2.798280716E-1,1.229934692E-1
1.953525172E1,2.176332474E-2,2.686653137E-1,2.198777199E-1
1.955519114E1,5.853700638E-2,2.198896408E-1,2.207450867E-1
1.957504385E1,1.056203842E-1,1.978054047E-1,1.697938442E-1
1.959493458E1,2.578291893E-1,2.064971924E-1,1.522674561E-1
1.961484031E1,3.771042824E-1,1.642379761E-1,9.626150131E-2
1.963471911E1,4.216051102E-1,1.329011917E-1,1.708340645E-2
1.965462667E1,3.316321373E-1,8.145904541E-2,-4.001522064E-2
1.967449078E1,2.931237221E-1,4.323196411E-2,-9.314203262E-2
1.969440792E1,3.267154694E-1,1.657295227E-2,-1.880371571E-1
1.971430854E1,3.734059334E-1,-3.377628326E-2,-2.617053986E-1
1.973422370E1,3.685712814E-1,-1.028642654E-1,-2.941827774E-1
1.975405521E1,2.902145386E-1,-1.841316223E-1,-3.178914785E-1
1.977395172E1,1.975011826E-1,-2.678689957E-1,-2.660098076E-1
1.979387292E1,1.451430321E-1,-2.492218018E-1,-2.454317808E-1
1.981376156E1,4.539918900E-2,-1.801891327E-1,-2.636027336E-1
1.983361802E1,-1.035523415E-1,-9.764289856E-2,-1.364302635E-1
1.985353521E1,-2.153372765E-1,-7.685279846E-2,5.236625671E-3
1.987339666E1,-2.370853424E-1,-2.964687347E-2,7.309603691E-2
1.989333078E1,-1.986260414E-1,-3.839492798E-2,8.063352108E-2
1.991323036E1,-1.362714767E-1,-1.147804260E-1,9.687781334E-2
1.993310286E1,-1.350173950E-1,-1.913471222E-1,2.504428625E-1
1.995299323E1,2.861285210E-2,-2.762775421E-1,2.111629248E-1
1.997286880E1,2.300939560E-1,-3.279504776E-1,4.645514488E-2
1.999275901E1,4.042022228E-1,-2.883853912E-1,-3.045904636E-2
2.001264672E1,4.716577530E-1,-2.631750107E-1,-6.922817230E-2
2.003258630E1,3.141717911E-1,-2.308063507E-1,-9.575378895E-2
2.005243792E1,1.217370033E-1,-2.009773254E-1,-1.413410902E-1
2.007235521E1,9.484744072E-2,-2.382040024E-1,-1.621007919E-1
2.009228776E1,1.943318844E-1,-2.523965836E-1,-1.632548571E-1
2.011210094E1,2.799906731E-1,-2.803115845E-1,-1.964085102E-1
2.013198807E1,2.987847328E-1,-2.314624786E-1,-7.936882973E-2
2.015191958E1,2.227120399E-1,-1.672611237E-1,1.010215282E-1
2.017178469E1,9.116983414E-2,-8.937931061E-2,3.530836105E-2
2.019167125E1,-3.447771072E-3,6.594657898E-3,-7.777196169E-2
2.021157448E1,3.254985809E-2,1.600914001E-1,-5.466508865E-2
2.023145531E1,9.752893448E-2,2.563772202E-1,7.680791616E-2
2.025135573E1,1.629548073E-1,2.614126205E-1,1.096063256E-1
2.027123406E1,2.017633915E-1,2.741394043E-1,3.808927536E-2
2.029111703E1,1.564278603E-1,3.199214935E-1,-3.969371319E-2
2.031101385E1,3.859901428E-2,3.696651459E-1,-1.115268767E-1
2.033092177E1,-2.514529228E-2,4.459733963E-1,-1.673800945E-1
2.035082427E1,-5.359601974E-2,4.440450668E-1,-2.035195380E-1
2.037071031E1,-4.879450798E-2,3.905849457E-1,-1.933912337E-1
2.039059844E1,3.167510033E-2,4.668140411E-1,-1.517046839E-1
2.041048031E1,4.882502556E-2,6.610879898E-1,-2.286467254E-1
2.043038875E1,3.199672699E-2,8.039941788E-1,-2.737079561E-1
2.045029974E1,-2.335262299E-2,8.360338211E-1,-2.230523229E-1
2.047021172E1,-1.466777325E-1,8.057126999E-1,-1.862965673E-1
2.049011177E1,-2.431478500E-1,7.927942276E-1,-2.202614546E-1
2.050997463E1,-3.102040291E-1,7.685022354E-1,-2.362345159E-1
2.052984984E1,-3.293905258E-1,7.136487961E-1,-1.590635478E-1
2.054974562E1,-3.603038788E-1,6.046476364E-1,-9.466268122E-2
2.056961495E1,-4.397032261E-1,4.702539444E-1,-1.833030581E-2
2.058951047E1,-5.420148373E-1,4.017343521E-1,5.431175232E-4
2.060941437E1,-5.695054531E-1,4.062194824E-1,4.457452893E-2
2.062928609E1,-6.143522263E-1,4.333906174E-1,9.317865968E-2
2.064921833E1,-6.283361912E-1,3.629436493E-1,1.249136329E-1
2.066907224E1,-5.219933987E-1,2.454853058E-1,1.084350348E-1
2.068898771E1,-3.806812763E-1,1.592226028E-1,1.397669911E-1
2.070889338E1,-3.069093227E-1,9.905242920E-2,1.733289361E-1
2.072877864E1,-2.844548225E-1,1.171646118E-1,6.290411949E-2
2.074864708E1,-1.651778221E-1,1.620950699E-1,-1.698440313E-2
2.076853484E1,-1.311111450E-2,1.011343002E-1,-6.356859207E-2
2.078843245E1,1.454761028E-1,1.767444611E-2,-1.434245110E-1
2.080834057E1,2.736513615E-1,-3.115653992E-3,-2.152395844E-1
2.082826547E1,3.573298454E-1,7.907772064E-2,-2.509059310E-1
2.084811922E1,4.058041573E-1,1.156864166E-1,-3.042218685E-1
2.086802120E1,5.546684265E-1,5.411815643E-2,-4.045541286E-1
2.088790792E1,6.490764618E-1,3.029823303E-3,-4.999276996E-1
2.090779057E1,6.975560188E-1,-2.055549622E-2,-4.899849892E-1
2.092766833E1,6.337347031E-1,-2.789974213E-2,-4.421504736E-1
2.094757068E1,5.633563995E-1,-3.583431244E-2,-4.285459518E-1
2.096746708E1,5.715496540E-1,-1.486625671E-1,-3.632225990E-1
2.098736979E1,5.847752094E-1,-3.108568192E-1,-3.426533937E-1
2.100726578E1,6.107091904E-1,-3.794803619E-1,-2.984534502E-1
2.102717271E1,6.212534904E-1,-3.555984497E-1,-2.304109335E-1
2.104703120E1,5.752477646E-1,-3.967075348E-1,-1.826201677E-1
2.106694094E1,3.852825165E-1,-4.547662735E-1,-7.415783405E-2
2.108679750E1,2.008504868E-1,-5.040149689E-1,1.872563362E-2
2.110671333E1,6.555795670E-2,-4.734845161E-1,5.746817589E-2
2.112661354E1,-1.290135384E-1,-3.955926895E-1,3.159451485E-2
2.114650260E1,-2.654647827E-1,-3.162479401E-1,-2.140235901E-2
2.116638526E1,-3.294520378E-1,-3.038082123E-1,-1.004123688E-2
2.118629760E1,-3.478164673E-1,-3.163285255E-1,-6.127357483E-3
2.120620765E1,-3.451228142E-1,-3.691883087E-1,-2.451515198E-2
2.122605109E1,-3.073844910E-1,-3.224363327E-1,6.269288063E-2
2.124594536E1,-2.428231239E-1,-2.824659348E-1,1.410324574E-1
2.126582104E1,-2.022442818E-1,-3.205561638E-1,1.962854862E-1
2.128572734E1,-1.689219475E-1,-3.571090698E-1,3.023338318E-1
2.130562312E1,-1.506371498E-1,-3.515000343E-1,3.422760963E-1
2.132553922E1,-1.351022720E-1,-2.854213715E-1,2.550644875E-1
2.134540156E1,-7.064485550E-2,-1.766881943E-1,1.943694353E-1
2.136531635E1,-1.913070679E-2,-1.263618469E-1,2.167708874E-1
2.138523755E1,2.695131302E-2,-2.004613876E-1,1.258832216E-1
2.140507078E1,7.627010345E-3,-3.376765251E-1,3.073608875E-2
2.142495125E1,-2.311420441E-2,-3.482079506E-1,-1.960158348E-2
2.144488052E1,-2.869129181E-3,-3.268585205E-1,-9.541761875E-2
2.146476844E1,7.391071320E-2,-3.551321030E-1,-1.795265675E-1
2.148463640E1,1.651911736E-1,-3.678178787E-1,-2.189413309E-1
2.150453140E1,2.514171600E-1,-3.078002930E-1,-2.156660557E-1
2.152445213E1,2.646079063E-1,-1.631584167E-1,-2.180385590E-1
2.154434901E1,2.432875633E-1,-6.713867188E-3,-2.093304396E-1
2.156423031E1,2.208175659E-1,7.081985474E-2,-1.969985962E-1
2.158413239E1,1.480989456E-1,1.253948212E-1,-1.525906324E-1
2.160402417E1,1.064515114E-1,1.656217575E-1,-5.650734901E-2
2.162390760E1,1.285767555E-1,1.981248856E-1,6.676471233E-2
2.164380583E1,1.450242996E-1,2.519893646E-1,7.346808910E-2
2.166367672E1,1.343383789E-1,3.650922775E-1,4.272341728E-2
2.168357265E1,1.108250618E-1,4.749870300E-1,-2.783823013E-2
2.170347510E1,7.205295563E-2,4.396162033E-1,-2.402005792E-1
2.172334213E1,1.463031769E-2,3.769006729E-1,-3.547187448E-1
2.174322630E1,-3.106784821E-2,3.734588623E-1,-3.982169628E-1
2.176317390E1,-5.639553070E-2,4.653139114E-1,-4.446491003E-1
2.178301838E1,-7.049608231E-2,5.004806519E-1,-4.351309538E-1
2.180290984E1,-1.475443840E-1,4.633359909E-1,-3.423838615E-1
2.182280568E1,-2.722883224E-1,3.465461731E-1,-2.786030173E-1
2.184270812E1,-4.209446907E-1,2.672071457E-1,-1.361323595E-1
2.186260698E1,-5.898981094E-1,2.750177383E-1,2.500796318E-2
2.188250073E1,-6.695632935E-1,2.485094070E-1,1.258130074E-1
2.190238760E1,-6.518497467E-1,1.801652908E-1,1.920951605E-1
2.192227484E1,-5.631365776E-1,7.734775543E-2,2.240856886E-1
2.194220396E1,-4.709138870E-1,-1.168060303E-2,2.305641174E-1
2.196204640E1,-3.804197311E-1,-4.597949982E-2,2.404453754E-1
2.198192724E1,-2.625780106E-1,-4.418182373E-2,1.923468113E-1
2.200182620E1,-1.795487404E-1,-8.021926880E-2,1.884062290E-1
2.202173646E1,-6.363439560E-2,-1.372919083E-1,1.297113895E-1
2.204162771E1,4.357290268E-2,-1.832084656E-1,1.214771271E-1
2.206148442E1,4.830980301E-2,-1.668729782E-1,1.545052528E-1
2.208140010E1,2.680826187E-2,-1.447038651E-1,1.711616516E-1
2.210127172E1,1.045079231E-1,-1.519165039E-1,1.683107615E-1
2.212121151E1,1.826834679E-1,-2.152433395E-1,1.499938965E-1
2.214108135E1,2.313485146E-1,-2.179431915E-1,1.182283163E-1
2.216096719E1,2.383656502E-1,-1.572160721E-1,4.177784920E-2
2.218087312E1,1.192946434E-1,-1.519365311E-1,4.018139839E-2
2.220072687E1,-2.121353149E-2,-1.729106903E-1,1.421277523E-1
2.222062776E1,-7.909917831E-2,-1.337232590E-1,1.346180439E-1
2.224052229E1,-2.645921707E-2,-7.363700867E-2,4.263806343E-2
2.226040620E1,-1.097073555E-1,-1.545968056E-1,5.981040001E-2
2.228033396E1,-2.961759567E-1,-3.411192894E-1,1.512587070E-1
2.230021213E1,-3.853583336E-1,-5.518431664E-1,2.073811293E-1
2.232010505E1,-4.254570007E-1,-4.789910316E-1,2.491726875E-1
2.233998922E1,-4.180130959E-1,-3.031158447E-1,2.341231108E-1
2.235990390E1,-4.039282799E-1,-2.430577278E-1,2.251915932E-1
2.237978312E1,-4.544448853E-1,-2.499337196E-1,2.730367184E-1
2.239968208E1,-5.129923820E-1,-2.258276939E-1,3.031699657E-1
2.241956802E1,-4.990286827E-1,-4.352188110E-2,2.524139881E-1
2.243945604E1,-4.774165154E-1,4.545450211E-2,2.483778000E-1
2.245936208E1,-4.346032143E-1,-5.454111099E-2,2.769522667E-1
2.247925219E1,-3.459501266E-1,-2.030968666E-1,2.638328075E-1
2.249911213E1,-2.577981949E-1,-3.137922287E-1,2.452557087E-1
2.251901640E1,-1.126093864E-1,-3.497452736E-1,1.879434586E-1
2.253890385E1,-7.117271423E-3,-4.154515266E-1,7.598686218E-2
2.255881750E1,3.283500671E-3,-4.593677521E-1,4.486799240E-3
2.257873297E1,-5.876064301E-3,-4.399890900E-1,1.060009003E-3
2.259859719E1,-7.713174820E-2,-3.605499268E-1,-5.558490753E-3
2.261847635E1,-2.219147682E-1,-2.524971962E-1,4.670858383E-3
2.263840713E1,-3.258566856E-1,-1.796274185E-1,1.002771854E-1
2.265827687E1,-3.810114861E-1,-1.191802025E-1,1.480925083E-1
2.267818969E1,-4.604735374E-1,-9.081077576E-2,1.473908424E-1
2.269803682E1,-5.072269440E-1,-6.448125839E-2,1.617877483E-1
2.271793776E1,-4.886412621E-1,-1.157674789E-1,1.272761822E-1
2.273784562E1,-4.014449120E-1,-1.753787994E-1,1.245810986E-1
2.275772807E1,-2.201056480E-1,-1.396913528E-1,1.012022495E-1
2.277762375E1,2.365589142E-3,-6.795072556E-2,-1.756620407E-2
2.279749109E1,1.534414291E-1,-1.895809174E-2,-1.045825481E-1
2.281739765E1,2.195458412E-1,-1.389503479E-3,-9.669899940E-2
2.283728463E1,2.291226387E-1,-1.838731766E-2,-1.326584816E-1
2.285720156E1,2.470502853E-1,-5.909442902E-3,-1.328344345E-1
2.287705828E1,2.779383659E-1,1.405191422E-2,-4.203963280E-2
2.289696213E1,3.019013405E-1,4.781246185E-2,1.067399979E-3
2.291687354E1,2.537302971E-1,1.577043533E-2,9.368658066E-3
2.293673682E1,1.617803574E-1,-5.457782745E-2,1.560091972E-2
2.295664771E1,1.013488770E-1,-6.193828583E-2,4.332160950E-2
2.297652661E1,-5.835056305E-3,-1.199245453E-1,2.167272568E-2
2.299643031E1,-6.833076477E-2,-1.392641068E-1,8.008623123E-2
2.301632625E1,-2.033615112E-2,-1.360511780E-1,1.376745701E-1
2.303624974E1,4.941082001E-2,-1.709790230E-1,1.395580769E-1
2.305609640E1,7.741403580E-2,-2.882676125E-1,1.127150059E-1
2.307599239E1,7.581663132E-2,-3.861675262E-1,1.393539906E-1
2.309588489E1,1.037588120E-1,-4.314842224E-1,7.277131081E-2
2.311578458E1,1.758427620E-1,-4.473314285E-1,2.989768982E-2
2.313568406E1,2.231001854E-1,-3.747987747E-1,2.378273010E-2
2.315555161E1,1.056208611E-1,-2.824029922E-1,2.100849152E-2
2.317545620E1,-1.904659271E-1,-2.590317726E-1,2.415513992E-2
2.319532578E1,-4.685049057E-1,-3.471102715E-1,1.077044010E-1
2.321524250E1,-5.398664474E-1,-4.469857216E-1,1.224453449E-1
2.323517937E1,-5.053963661E-1,-3.854489326E-1,7.998299599E-2
2.325500995E1,-5.815944672E-1,-2.178292274E-1,-3.120100498E-2
2.327491625E1,-8.394393921E-1,-9.566974640E-2,-6.867849827E-2
2.329482187E1,-1.175728798E0,-2.000999451E-2,2.790784836E-2
2.331470698E1,-1.350242138E0,-3.506374359E-2,2.727971077E-1
2.333459140E1,-1.180065155E0,1.083374023E-3,5.594298840E-1
2.335449000E1,-7.260618210E-1,2.988033295E-1,7.166261673E-1
2.337438042E1,-3.782596588E-1,7.868556976E-1,6.152827740E-1
2.339428656E1,-2.103290558E-1,1.078685760E0,4.272606373E-1
2.341420286E1,-6.221294403E-3,1.055171013E0,2.401428223E-1
2.343403713E1,2.132196426E-1,9.257717133E-1,9.906673431E-2
2.345395281E1,5.758056641E-1,8.136510849E-1,-2.047088146E-1
2.347383526E1,9.563794136E-1,7.361488342E-1,-4.716511965E-1
2.349370047E1,1.364501715E0,6.733932495E-1,-6.387519836E-1
2.351361666E1,1.545449734E0,6.056652069E-1,-6.076674461E-1
2.353350896E1,1.454687119E0,6.248388290E-1,-6.276574135E-1
2.355338989E1,1.258802891E0,6.880464554E-1,-7.065416574E-1
2.357331271E1,1.089757204E0,7.252035141E-1,-5.815092325E-1
2.359318307E1,8.907184601E-1,5.979280472E-1,-4.382570982E-1
2.361308521E1,7.329955101E-1,4.418220520E-1,-4.077799320E-1
2.363296146E1,6.915888786E-1,3.382978439E-1,-3.890523911E-1
2.365288073E1,6.146492958E-1,2.797422409E-1,-3.640484810E-1
2.367275083E1,5.241680145E-1,3.249883652E-1,-2.490437031E-1
2.369265114E1,4.310102463E-1,3.317632675E-1,-1.987226009E-1
2.371250380E1,4.004945755E-1,2.987403870E-1,-1.565783024E-1
2.373243656E1,4.186835289E-1,2.314300537E-1,-6.828308105E-2
2.375233042E1,4.764990807E-1,1.448898315E-1,-4.911589622E-2
2.377224057E1,5.456204414E-1,8.063793182E-2,-4.735088348E-2
2.379209505E1,5.424327850E-1,1.790847778E-1,3.199672699E-2
2.381197224E1,5.785796642E-1,2.060861588E-1,2.111840248E-2
2.383189604E1,6.166930199E-1,2.087182999E-1,-6.103515625E-4
2.385175604E1,6.485471725E-1,2.465381622E-1,-4.180431366E-2
2.387166531E1,7.077579498E-1,2.410879135E-1,-1.438093185E-1
2.389153682E1,7.228248119E-1,2.016716003E-1,-2.523353100E-1
2.391146385E1,6.423776150E-1,1.594505310E-1,-2.700672150E-1
2.393134469E1,5.424365997E-1,1.349105835E-1,-2.744755745E-1
2.395125156E1,4.471337795E-1,3.511905670E-2,-3.151204586E-1
2.397111656E1,2.667284012E-1,-2.821159363E-2,-3.283672333E-1
2.399100276E1,7.656383514E-2,-3.448963165E-2,-2.917032242E-1
2.401089427E1,-2.850532532E-2,-4.060745239E-2,-2.642312050E-1
2.403080885E1,-8.744478226E-2,-1.043891907E-2,-1.840236187E-1
2.405068885E1,-7.450723648E-2,7.401180267E-2,-1.332845688E-1
2.407057875E1,-1.133852005E-1,1.310873032E-1,-1.111228466E-1
2.409045276E1,-1.957488060E-1,2.233171463E-1,-7.011961937E-2
2.411037396E1,-2.241859436E-1,4.184989929E-1,-9.030580521E-3
2.413026797E1,-2.524676323E-1,5.644531250E-1,-6.261467934E-2
2.415016224E1,-2.269854546E-1,5.481386185E-1,-1.519644260E-1
2.417002292E1,-1.730661392E-1,3.675861359E-1,-1.350572109E-1
2.418993396E1,3.190708160E-2,2.706632614E-1,-1.232655048E-1
2.420981750E1,2.202970982E-1,2.935914993E-1,-2.503387928E-1
2.422970088E1,2.854070663E-1,3.669548035E-1,-3.361861706E-1
2.424958021E1,1.668992043E-1,3.077859879E-1,-2.355558872E-1
2.426947370E1,3.310108185E-2,1.814289093E-1,-1.666269302E-1
2.428938510E1,-6.108617783E-2,1.012983322E-1,-1.924524307E-1
2.430927161E1,-1.634171009E-1,8.522796631E-2,-2.099528313E-1
2.432918255E1,-2.165758610E-1,4.538822174E-2,-1.837959290E-1
2.434904870E1,-3.020315170E-1,-3.480339050E-2,-1.501848698E-1
2.436894885E1,-3.397891521E-1,-1.140851974E-1,-1.292026043E-1
2.438887765E1,-3.100552559E-1,-1.375989914E-1,-1.165282726E-1
2.440874104E1,-2.156677246E-1,-1.292610168E-1,-4.205822945E-2
2.442861463E1,-1.245043278E-1,-1.363534927E-1,-4.694199562E-2
2.444851661E1,2.593302727E-2,-6.908416748E-2,-1.027789116E-1
2.446844354E1,1.029965878E-1,-6.537818909E-2,-7.409334183E-2
2.448834797E1,1.421048641E-1,-1.301813126E-1,-5.806684494E-2
2.450823943E1,2.191746235E-1,-1.746931076E-1,-6.736874580E-2
2.452808120E1,3.113930225E-1,-1.805696487E-1,-6.129622459E-2
2.454796328E1,3.487031460E-1,-2.497386932E-1,-5.073142052E-2
2.456789198E1,3.809249401E-1,-3.412790298E-1,-3.402519226E-2
2.458774442E1,4.448494911E-1,-3.603744507E-1,2.917814255E-2
2.460767604E1,4.837601185E-1,-3.408117294E-1,5.056929588E-2
2.462755026E1,4.429192543E-1,-2.759447098E-1,6.835842133E-2
2.464744828E1,3.948273659E-1,-2.229766846E-1,1.153876781E-1
2.466734062E1,4.295115471E-1,-2.275009155E-1,1.942148209E-1
2.468724568E1,4.697299004E-1,-2.016019821E-1,2.861649990E-1
2.470712489E1,4.584579468E-1,-1.595115662E-1,3.258843422E-1
2.472703911E1,3.364346027E-1,-1.061820984E-1,3.090064526E-1
2.474689864E1,2.076275349E-1,-3.225421906E-2,3.087296486E-1
2.476678411E1,8.599948883E-2,-1.116752625E-2,3.048510551E-1
2.478668854E1,1.029732227E-1,2.403450012E-2,3.368029594E-1
2.480657073E1,2.115173340E-1,2.073192596E-2,3.680171967E-1
2.482646578E1,2.702975273E-1,1.939773560E-2,3.364253044E-1
2.484637125E1,2.370772362E-1,4.260635376E-2,3.479108810E-1
2.486626354E1,2.164318562E-1,3.317928314E-2,3.274297714E-1
2.488618963E1,2.603414059E-1,1.519107819E-2,1.912474632E-1
2.490605208E1,3.474802971E-1,2.531909943E-2,1.734724045E-1
2.492593609E1,3.408446312E-1,-4.690647125E-2,1.342811584E-1
2.494580234E1,2.817358971E-1,-1.170492172E-1,8.568835258E-2
2.496568911E1,2.792031765E-1,-1.577062607E-1,1.132605076E-1
2.498560906E1,2.953155041E-1,-1.278848648E-1,1.363930702E-1
2.500548224E1,3.638517857E-1,-7.739639282E-2,1.500909328E-1
2.502540422E1,4.197449684E-1,-3.015804291E-2,1.447248459E-1
2.504528729E1,3.889164925E-1,-3.503608704E-2,1.306827068E-1
2.506522724E1,3.307247162E-1,-3.299808502E-2,1.665313244E-1
2.508506297E1,2.984335423E-1,-2.452468872E-2,1.279103756E-1
2.510494984E1,2.746536732E-1,-1.283168793E-2,6.285953522E-2
2.512484974E1,2.383253574E-1,6.175518036E-2,2.233076096E-2
2.514473406E1,1.834959984E-1,1.073856354E-1,-4.072904587E-3
2.516462859E1,7.410240173E-2,6.165885925E-2,-1.510071754E-2
2.518451692E1,5.114030838E-2,5.093193054E-2,5.877494812E-3
2.520442875E1,1.475427151E-1,6.015110016E-2,-4.065275192E-3
2.522434401E1,1.759862900E-1,6.326198578E-2,-4.893517494E-2
2.524422302E1,2.079169750E-1,3.916835785E-2,-2.013707161E-2
2.526409963E1,1.988160610E-1,1.404285431E-2,-2.199649811E-2
2.528398364E1,2.023007870E-1,6.972312927E-3,-7.867097855E-2
2.530385630E1,2.189800739E-1,-6.583213806E-3,-5.682015419E-2
2.532377729E1,2.130401134E-1,1.420879364E-2,-5.176234245E-2
2.534365474E1,1.805796623E-1,3.472328186E-3,-7.007169724E-2
2.536356312E1,1.634750366E-1,3.478622437E-2,-7.129621506E-2
2.538342568E1,1.402554512E-1,2.225685120E-2,-7.242989540E-2
2.540331474E1,1.377711296E-1,-5.264472961E-2,-5.911350250E-2
2.542321338E1,1.364955902E-1,-1.168355942E-1,-9.919095039E-2
2.544311427E1,1.380910873E-1,-1.377906799E-1,-5.511021614E-2
2.546299166E1,1.313462257E-1,-1.508350372E-1,-3.568720818E-2
2.548289250E1,1.130023003E-1,-1.515893936E-1,-8.926308155E-2
2.550277693E1,1.360545158E-1,-6.744289398E-2,-4.579961300E-2
2.552269177E1,1.680827141E-1,-8.662414551E-2,-1.044893265E-2
2.554257114E1,1.851959229E-1,-2.087450027E-1,-5.203044415E-2
2.556245984E1,1.288118362E-1,-2.141857147E-1,-2.871119976E-2
2.558238276E1,8.960962296E-2,-2.022867203E-1,3.966653347E-2
2.560227765E1,1.039614677E-1,-2.590045929E-1,5.289793015E-3
2.562215479E1,2.552447319E-1,-3.494062424E-1,3.437280655E-3
2.564203062E1,3.858313560E-1,-4.508790970E-1,6.872546673E-2
2.566192969E1,3.574256897E-1,-5.004663467E-1,1.019128561E-1
2.568183354E1,2.338404655E-1,-6.025609970E-1,2.252697945E-3
2.570171172E1,1.527724266E-1,-7.283887863E-1,-8.471858501E-2
2.572159203E1,1.660823822E-2,-8.211631775E-1,-2.138704062E-1
2.574149635E1,-1.716065407E-1,-6.648373604E-1,-2.726877928E-1
2.576136531E1,-3.220791817E-1,-5.794959068E-1,-4.064886272E-1
2.578125943E1,-3.577699661E-1,-5.906310081E-1,-4.657611847E-1
2.580119411E1,-3.372588158E-1,-5.757980347E-1,-3.619726896E-1
2.582103963E1,-3.211102486E-1,-4.558372498E-1,-2.313918471E-1
2.584093823E1,-3.238992691E-1,-3.172268867E-1,-1.974741817E-1
2.586084479E1,-3.155198097E-1,-1.779370308E-1,-1.682643145E-1
2.588074781E1,-3.459453583E-1,-5.453729630E-2,-1.123859659E-1
2.590062120E1,-4.183778763E-1,4.732036591E-2,-2.721830085E-2
2.592053745E1,-4.274740219E-1,2.235126495E-1,3.969199955E-2
2.594040359E1,-3.879022598E-1,2.856063843E-1,8.808687329E-3
2.596031177E1,-3.084297180E-1,4.404172897E-1,2.330309153E-2
2.598021823E1,-2.912883759E-1,6.214613914E-1,5.909067392E-2
2.600011427E1,-4.631648064E-1,7.079057693E-1,1.863390207E-3
2.601998385E1,-6.544308662E-1,6.438040733E-1,-1.224394441E-1
2.603984198E1,-7.315964699E-1,5.702772141E-1,-1.740436554E-1
2.605974995E1,-6.383256912E-1,6.252717972E-1,-2.045767307E-1
2.607962896E1,-5.384740829E-1,7.739510536E-1,-2.700775862E-1
2.609952568E1,-5.916824341E-1,9.491906166E-1,-3.631212711E-1
2.611941474E1,-8.029627800E-1,1.042562485E0,-3.923138380E-1
2.613932870E1,-1.066195965E0,1.056556225E0,-3.072143793E-1
2.615919984E1,-1.286329746E0,1.059310436E0,-3.244196177E-1
2.617911114E1,-1.416553497E0,1.088304520E0,-3.526059985E-1
2.619900542E1,-1.422487259E0,1.081061363E0,-3.540480733E-1
2.621888562E1,-1.418828964E0,9.580788612E-1,-3.615757227E-1
2.623875292E1,-1.414726257E0,8.901619911E-1,-3.321018815E-1
2.625868219E1,-1.388488293E0,8.417806625E-1,-2.586932778E-1
2.627854479E1,-1.350831509E0,8.095450401E-1,-2.324467897E-1
2.629844489E1,-1.300183296E0,7.213635445E-1,-2.580575943E-1
2.631838031E1,-1.176102161E0,5.773825645E-1,-2.464193702E-1
2.633823526E1,-1.007046223E0,3.753023148E-1,-2.424983084E-1
2.635814922E1,-8.569941521E-1,1.883144379E-1,-2.488319576E-1
2.637800859E1,-7.210416794E-1,-2.754211426E-3,-2.050393969E-1
2.639793823E1,-5.487203598E-1,-2.066402435E-1,-1.419254988E-1
2.641781958E1,-3.470830917E-1,-3.327360153E-1,-6.265160441E-2
2.643770885E1,-1.354255676E-1,-4.772357941E-1,-9.547430277E-2
2.645760146E1,6.423282623E-2,-5.960178375E-1,-1.667920351E-1
2.647747656E1,1.790757179E-1,-7.139725685E-1,-2.447513342E-1
2.649736463E1,1.886458397E-1,-7.956185341E-1,-2.945907712E-1
2.651726620E1,1.381988525E-1,-8.120188713E-1,-2.422788143E-1
2.653716208E1,1.592326164E-1,-8.598833084E-1,-1.959213018E-1
2.655706625E1,2.343626022E-1,-8.631877899E-1,-1.923270226E-1
2.657693687E1,3.343529701E-1,-7.897138596E-1,-2.183252573E-1
2.659686094E1,4.187712669E-1,-6.931166649E-1,-3.276040554E-1
2.661672568E1,4.853630066E-1,-6.382594109E-1,-3.094394207E-1
2.663659953E1,5.325653553E-1,-6.189374924E-1,-2.110624313E-1
2.665650198E1,5.485699177E-1,-6.202278137E-1,-2.556242943E-1
2.667641125E1,5.422306061E-1,-5.652036667E-1,-2.808234692E-1
2.669629917E1,5.353639126E-1,-3.810176849E-1,-1.886076927E-1
2.671623969E1,4.350149632E-1,-1.007080078E-2,-2.526617050E-2
2.673607349E1,3.336172104E-1,3.030214310E-1,8.075022697E-2
2.675598323E1,3.591084480E-1,2.753801346E-1,1.400241852E-1
2.677587042E1,3.212583065E-1,2.757930756E-2,1.776869297E-1
2.679574786E1,2.573130131E-1,-2.260465622E-1,1.582551003E-1
2.681564062E1,2.272984982E-1,-3.497877121E-1,8.303880692E-2
2.683555312E1,8.932709694E-2,-4.230966568E-1,-1.324653625E-3
2.685543229E1,-4.228425026E-2,-4.787340164E-1,-3.073096275E-2
2.687531568E1,-1.329665184E-1,-5.459041595E-1,-1.402664185E-2
2.689519942E1,-1.614511013E-1,-5.998778343E-1,-5.992960930E-2
2.691511104E1,-1.086125374E-1,-6.885294914E-1,-1.032955647E-1
2.693500771E1,-2.677130699E-2,-7.269182205E-1,-7.323026657E-2
2.695490469E1,4.911875725E-2,-6.538033485E-1,3.895378113E-2
2.697478911E1,1.530609131E-1,-5.578393936E-1,8.627796173E-2
2.699468396E1,2.875518799E-1,-4.515347481E-1,7.708215714E-2
2.701456771E1,4.519085884E-1,-4.018325806E-1,9.430551529E-2
2.703446302E1,6.619228125E-1,-3.737354279E-1,1.156754494E-1
2.705438411E1,7.126700878E-1,-2.868776321E-1,1.453433037E-1
2.707425802E1,7.389636040E-1,-2.434339523E-1,1.771674156E-1
2.709415942E1,7.881036997E-1,-1.492633820E-1,1.838531494E-1
2.711403062E1,8.441771269E-1,-8.493709564E-2,2.132067680E-1
2.713392167E1,8.794234991E-1,-9.189224243E-2,2.545638084E-1
2.715381182E1,9.499887228E-1,-5.670642853E-2,2.589387894E-1
2.717368104E1,9.830454588E-1,3.160572052E-2,3.003239632E-1
2.719359453E1,9.575963020E-1,8.165550232E-2,3.100614548E-1
2.721345719E1,8.213143349E-1,-1.649475098E-2,2.717041969E-1
2.723335693E1,6.990151405E-1,-6.069374084E-2,2.216296196E-1
2.725327719E1,6.935939789E-1,-4.878711700E-2,1.426692009E-1
2.727318849E1,6.390171051E-1,-3.801918030E-2,1.788425446E-2
2.729306052E1,5.680823326E-1,4.331874847E-2,-9.069252014E-2
2.731295406E1,4.563033581E-1,5.787086487E-2,-1.927316189E-1
2.733284052E1,3.295409679E-1,1.192150116E-1,-2.979140282E-1
2.735272062E1,2.464582920E-1,2.563724518E-1,-3.410181999E-1
2.737261724E1,2.248005867E-1,2.395629883E-1,-3.191819191E-1
2.739249286E1,2.252140045E-1,8.807277679E-2,-2.806851864E-1
2.741242401E1,3.153510094E-1,-2.546024323E-2,-2.930223942E-1
2.743230521E1,3.955106735E-1,-2.076377869E-1,-3.801264763E-1
2.745220713E1,4.529726505E-1,-3.287916183E-1,-4.041862488E-1
2.747208896E1,4.558587074E-1,-4.516210556E-1,-4.240794182E-1
2.749198239E1,3.876693249E-1,-4.771661758E-1,-4.345464706E-1
2.751187364E1,3.055322170E-1,-3.574781418E-1,-4.614064693E-1
2.753172802E1,2.027406693E-1,-2.454471588E-1,-4.837276936E-1
2.755164338E1,4.429173470E-2,-1.595268250E-1,-3.875534534E-1
2.757151661E1,-6.453061104E-2,-1.078109741E-1,-2.392909527E-1
2.759142469E1,-1.613793373E-1,-6.757640839E-2,-2.566053867E-1
2.761130948E1,-2.693996429E-1,1.340303421E-1,-2.683231831E-1
2.763121094E1,-3.831534386E-1,3.509025574E-1,-1.617956161E-1
2.765111271E1,-5.153331757E-1,4.664573669E-1,-2.956962585E-2
2.767100406E1,-5.564980507E-1,4.974899292E-1,-2.065002918E-2
2.769090344E1,-5.623078346E-1,4.788446426E-1,-8.495879173E-2
2.771075693E1,-5.867981911E-1,4.691038132E-1,-8.648526669E-2
2.773066568E1,-6.812329292E-1,4.741325378E-1,-1.058861017E-1
2.775055640E1,-7.837519646E-1,5.346918106E-1,-1.890515089E-1
2.777043302E1,-8.152856827E-1,5.829830170E-1,-1.766036749E-1
2.779034625E1,-8.554010391E-1,5.336885452E-1,2.843666077E-2
2.781024750E1,-9.295530319E-1,3.772344589E-1,2.488610744E-1
2.783014213E1,-1.091708660E0,1.349983215E-1,3.302114010E-1
2.785002479E1,-1.213174343E0,-4.030609131E-2,4.827408791E-1
2.786992635E1,-1.275256157E0,-1.031827927E-1,7.491838932E-1
2.788981062E1,-1.234432697E0,-1.840572357E-1,8.090463877E-1
2.790971219E1,-1.199162483E0,-3.218421936E-1,7.193801403E-1
2.792959156E1,-1.159934998E0,-4.503631592E-1,6.701654196E-1
2.794945995E1,-1.011646271E0,-5.699844360E-1,6.883140802E-1
2.796935547E1,-8.799538612E-1,-5.959939957E-1,6.364737749E-1
2.798926792E1,-8.730411530E-1,-5.923643112E-1,5.998446941E-1
2.800918234E1,-7.954092026E-1,-6.007318497E-1,5.981777906E-1
2.802902703E1,-6.580142975E-1,-5.604133606E-1,6.356064081E-1
2.804891682E1,-6.217145920E-1,-5.156145096E-1,5.542466640E-1
2.806882323E1,-6.535568237E-1,-4.963769913E-1,3.942545652E-1
2.808870599E1,-6.392760277E-1,-4.179620743E-1,2.355723381E-1
2.810857943E1,-6.152305603E-1,-3.862943649E-1,1.427705288E-1
2.812850073E1,-5.359563828E-1,-3.924131393E-1,4.633164406E-2
2.814838396E1,-4.432368279E-1,-3.786067963E-1,-6.408381462E-2
2.816829838E1,-3.805217743E-1,-4.254102707E-1,-1.439850330E-1
2.818819536E1,-4.270753860E-1,-4.884338379E-1,-1.449229717E-1
2.820805151E1,-3.248977661E-1,-4.850549698E-1,-1.267529726E-1
2.822794620E1,-4.659938812E-2,-3.385105133E-1,-1.496844292E-1
2.824784552E1,2.310757637E-1,-9.259223938E-2,-2.449311018E-1
2.826774604E1,3.135557175E-1,8.326911926E-2,-2.402342558E-1
2.828761474E1,2.530732155E-1,1.735010147E-1,-2.563167810E-1
2.830753437E1,2.249855995E-1,1.786441803E-1,-2.478752136E-1
2.832742698E1,2.705378532E-1,2.207956314E-1,-2.107118368E-1
2.834730906E1,3.692078590E-1,3.593835831E-1,-2.495291233E-1
2.836722354E1,4.727859497E-1,5.303344727E-1,-2.634087801E-1
2.838708297E1,5.822920799E-1,5.869159698E-1,-3.349653482E-1
2.840700104E1,7.128121853E-1,6.613874435E-1,-2.939687967E-1
2.842689396E1,7.674136162E-1,7.289781570E-1,-3.124768734E-1
2.844676963E1,8.112142086E-1,7.534151077E-1,-4.266271591E-1
2.846666661E1,7.473344803E-1,7.368354797E-1,-4.394971132E-1
2.848656896E1,7.174034119E-1,6.431989670E-1,-4.372279644E-1
2.850647062E1,7.917168140E-1,5.062274933E-1,-4.218263626E-1
2.852636307E1,9.354858398E-1,4.530286789E-1,-3.326781988E-1
2.854626140E1,1.077930450E0,4.798545837E-1,-2.756810188E-1
2.856611656E1,1.041535139E0,4.378576279E-1,-1.593015194E-1
2.858602489E1,9.194834232E-1,3.397350311E-1,-8.366107941E-3
2.860594880E1,9.742195606E-1,3.881893158E-1,1.224937439E-1
2.862578974E1,1.120211363E0,5.047330856E-1,1.274373531E-1
2.864568265E1,1.181655407E0,6.228876114E-1,1.186547279E-1
2.866558557E1,1.087021351E0,7.038221359E-1,7.389593124E-2
2.868548187E1,8.933207989E-1,6.472272873E-1,3.810119629E-2
2.870536411E1,6.554934978E-1,5.583314896E-1,1.072454453E-2
2.872525547E1,5.140750408E-1,5.386114120E-1,-9.850144386E-2
2.874518911E1,4.674363136E-1,5.199127197E-1,-1.778483391E-1
2.876503265E1,4.595282078E-1,4.824476242E-1,-1.763820648E-1
2.878491786E1,3.658852577E-1,3.256807327E-1,-1.186566353E-1
2.880484021E1,2.268199921E-1,1.392917633E-1,-3.763890266E-2
2.882473333E1,1.030321121E-1,-8.757305145E-2,2.930641174E-3
2.884461427E1,2.324438095E-2,-1.865711212E-1,-4.890751839E-2
2.886448859E1,5.544638634E-2,-1.724967957E-1,-4.857707024E-2
2.888442042E1,1.339492798E-1,-1.514892578E-1,-1.137471199E-1
2.890432120E1,1.131508350E-1,-1.568078995E-1,-1.591935158E-1
2.892420651E1,-1.010928154E-1,-3.357324600E-1,-1.735985279E-1
2.894408286E1,-3.568997383E-1,-3.931226730E-1,-3.652143478E-2
2.896395390E1,-4.196331501E-1,-5.739459991E-1,1.319150925E-1
2.898385469E1,-2.391986847E-1,-8.199186325E-1,2.682788372E-1
2.900374807E1,6.373834610E-2,-8.155369759E-1,3.763456345E-1
2.902364620E1,2.184288502E-1,-6.063947678E-1,3.365354538E-1
2.904352901E1,1.750376225E-1,-2.259349823E-1,2.500445843E-1
2.906342448E1,-4.912304878E-2,1.161670685E-1,1.911454201E-1
2.908330005E1,-4.292962551E-1,1.865100861E-1,3.032670021E-1
2.910319161E1,-5.605230331E-1,3.397264481E-1,4.172708988E-1
2.912310833E1,-3.528008461E-1,5.071716309E-1,3.057370186E-1
2.914297510E1,-1.100616455E-1,5.823469162E-1,2.919807434E-1
2.916288333E1,-5.274200439E-2,5.868148804E-1,4.492828846E-1
2.918275318E1,2.201557159E-2,6.661567688E-1,4.168598652E-1
2.920267818E1,1.136198044E-1,6.442117691E-1,1.480872631E-1
2.922253156E1,1.496028900E-1,5.556058884E-1,1.616764069E-2
2.924246297E1,1.142959595E-1,3.738679886E-1,5.706787109E-3
2.926233781E1,4.982948303E-3,-1.070976257E-3,-1.454586983E-1
2.928226036E1,2.879333496E-2,-4.368572235E-1,-4.764419794E-1
2.930214698E1,1.590394974E-2,-8.546352386E-1,-4.803565741E-1
2.932200703E1,-2.557687759E-1,-1.336874485E0,-2.935590744E-1
2.934192323E1,-3.703942299E-1,-1.734539509E0,-2.734591961E-1
2.936179870E1,-3.295407295E-1,-1.545353889E0,-9.171847105E-1
2.938166786E1,-8.957338333E-1,-1.005321026E0,-6.270945072E-1
2.940157281E1,-1.292963028E0,-4.350471497E-1,5.333030224E-1
2.942146755E1,-1.498965263E0,-2.512645721E-1,5.107886791E-1
2.944135609E1,-1.934130192E0,-3.250293732E-1,-1.109457016E-2
2.946126646E1,-2.275167465E0,-3.307867050E-1,6.861920357E-1
2.948117417E1,-1.922060966E0,-3.336439133E-1,1.282894850E0
2.950102630E1,-1.273193359E0,-4.103345871E-1,1.142203808E0
2.952092713E1,-7.898492813E-1,-4.870200157E-1,6.752014160E-1
2.954084021E1,-4.931311607E-1,-4.623832703E-1,3.212082386E-1
2.956070927E1,-3.782644272E-1,-3.496360779E-1,1.793556213E-1
2.958061385E1,-5.853309631E-1,-3.393163681E-1,3.873920441E-2
2.960052245E1,-8.704380989E-1,-4.744777679E-1,-2.578592300E-2
2.962040250E1,-9.792799950E-1,-6.856050491E-1,-1.601338387E-2
2.964028333E1,-8.263330460E-1,-8.890900612E-1,-1.115305424E-1
2.966017370E1,-6.386327744E-1,-1.070031166E0,-2.132961750E-1
2.968006906E1,-5.495595932E-1,-1.065657616E0,-1.221280098E-1
2.969997406E1,-5.794491768E-1,-8.169889450E-1,-8.004474640E-2
2.971987062E1,-5.363669395E-1,-5.712552071E-1,-3.067708015E-2
2.973973599E1,-5.183281898E-1,-4.085416794E-1,1.254513264E-1
2.975962729E1,-4.846105576E-1,-2.520866394E-1,5.236048698E-1
2.977951385E1,-3.445134163E-1,-1.211452484E-1,7.005755901E-1
2.979940437E1,-5.066251755E-2,3.634834290E-2,5.080473423E-1
2.981929510E1,3.322243690E-1,2.596454620E-1,3.554105759E-1
2.983920448E1,6.299219131E-1,3.577003479E-1,2.418069839E-1
2.985907234E1,6.643624306E-1,3.305320740E-1,5.402112007E-2
2.987898760E1,5.591311455E-1,3.550710678E-1,-9.152436256E-2
2.989889338E1,5.474934578E-1,4.444828033E-1,-1.726462841E-1
2.991876182E1,6.442832947E-1,5.604639053E-1,-1.812944412E-1
2.993864073E1,7.564554214E-1,5.601558685E-1,-2.204314470E-1
2.995853692E1,7.520527840E-1,4.665164948E-1,-2.444278002E-1
2.997843297E1,6.608958244E-1,4.489498138E-1,-1.865043640E-1
2.999833552E1,5.121402740E-1,4.778699875E-1,-2.138956785E-1
3.001826198E1,4.268107414E-1,4.885635376E-1,-2.748358250E-1
3.003813484E1,3.186221123E-1,4.681692123E-1,-2.957475185E-1
3.005799640E1,1.988840103E-1,3.754129410E-1,-3.410069942E-1
3.007789609E1,1.021647453E-1,3.279228210E-1,-2.602460384E-1
3.009779083E1,1.560411453E-1,3.437690735E-1,-1.887576580E-1
3.011765229E1,2.458281517E-1,2.710371017E-1,-1.336896420E-1
3.013756286E1,2.527318001E-1,2.173948288E-1,-3.640508652E-2
3.015744203E1,2.227301598E-1,2.169084549E-1,-2.816200256E-2
3.017733818E1,2.808432579E-1,2.948980331E-1,-5.631685257E-2
3.019724963E1,3.768804073E-1,2.921533585E-1,-8.310270309E-2
3.021712078E1,3.823084831E-1,1.921491623E-1,-1.550712585E-1
3.023701917E1,3.161644936E-1,1.480255127E-1,-1.550242901E-1
3.025689781E1,3.244941235E-1,1.282224655E-1,-1.030957699E-1
3.027679724E1,3.815276623E-1,1.751947403E-1,-1.762025356E-1
3.029669948E1,4.327745438E-1,2.204427719E-1,-2.686145306E-1
3.031660531E1,4.287278652E-1,1.286106110E-1,-2.418379784E-1
3.033649260E1,3.714985847E-1,-7.786750793E-3,-2.288401127E-1
3.035638833E1,2.984957695E-1,-1.191148758E-1,-2.755913734E-1
3.037629854E1,2.428655624E-1,-1.884098053E-1,-2.779405117E-1
3.039621213E1,2.020721436E-1,-2.623739243E-1,-2.694807053E-1
3.041606005E1,1.609752178E-1,-2.992935181E-1,-2.792394161E-1
3.043594047E1,1.751656532E-1,-3.675346375E-1,-2.141916752E-1
3.045586104E1,1.446933746E-1,-4.121875763E-1,-1.185503006E-1
3.047573745E1,7.298636436E-2,-3.730897903E-1,-7.654666901E-2
3.049562057E1,-3.225803375E-4,-3.486795425E-1,-6.246757507E-2
3.051550432E1,-4.586887360E-2,-3.229455948E-1,-6.910800934E-3
3.053538239E1,-8.983850479E-2,-2.053775787E-1,6.057667732E-2
3.055529583E1,-2.289619446E-1,-8.456420898E-2,1.320710182E-1
3.057525531E1,-3.839659691E-1,2.717494965E-2,1.943335533E-1
3.059507036E1,-4.211347103E-1,7.598686218E-2,2.248857021E-1
3.061496547E1,-3.888013363E-1,5.714321136E-2,2.051546574E-1
3.063486760E1,-3.690643311E-1,1.056308746E-1,1.244301796E-1
3.065476896E1,-4.350056648E-1,1.895885468E-1,6.951546669E-2
3.067465635E1,-5.412821770E-1,2.112655640E-1,8.446002007E-2
3.069455521E1,-5.205271244E-1,1.729164124E-1,8.387422562E-2
3.071442130E1,-3.603458405E-1,8.979511261E-2,5.817222595E-2
3.073433375E1,-2.238247395E-1,8.812713623E-2,7.640814781E-2
3.075424333E1,-2.175185680E-1,1.570844650E-1,9.958624840E-2
3.077412448E1,-2.769451141E-1,1.395730972E-1,9.566497803E-2
3.079402198E1,-3.137772083E-1,5.380725861E-2,1.453337669E-1
3.081390281E1,-3.242428303E-1,-6.475448608E-2,1.672358513E-1
3.083378875E1,-2.949171066E-1,-1.633272171E-1,8.912086487E-3
3.085369437E1,-2.631840706E-1,-1.628284454E-1,-8.064126968E-2
3.087356344E1,-2.979471684E-1,-1.533155441E-1,-1.379063129E-1
3.089343505E1,-3.016097546E-1,-2.534608841E-1,-1.507267952E-1
3.091334880E1,-3.240349293E-1,-3.854656219E-1,-1.605067253E-1
3.093324583E1,-3.896129131E-1,-4.458303452E-1,-1.363017559E-1
3.095315292E1,-5.026552677E-1,-3.805961609E-1,-7.792043686E-2
3.097302359E1,-5.653526783E-1,-3.690071106E-1,1.442980766E-2
3.099290276E1,-5.418162346E-1,-3.114538193E-1,8.286094666E-2
3.101281625E1,-4.493386745E-1,-2.952423096E-1,1.625862122E-1
3.103271333E1,-4.064416885E-1,-2.441749573E-1,2.329900265E-1
3.105258344E1,-4.212934971E-1,-1.360597610E-1,2.721667290E-1
3.107246109E1,-3.752546310E-1,-4.799652100E-2,2.584731579E-1
3.109238031E1,-3.738775253E-1,-4.173660278E-2,2.548382282E-1
3.111227667E1,-4.528136253E-1,-8.916091919E-2,2.543616295E-1
3.113218682E1,-3.928837776E-1,-5.636119843E-2,2.412810326E-1
3.115203640E1,-2.065448761E-1,-1.640224457E-2,2.176792622E-1
3.117194036E1,-8.003234863E-2,7.759094238E-3,1.923322678E-1
3.119186010E1,-5.378866196E-2,3.821182251E-2,1.306178570E-1
3.121174166E1,2.865362167E-2,-7.160758972E-2,1.059465408E-1
3.123162719E1,1.513729095E-1,-1.082811356E-1,1.410572529E-1
3.125148885E1,2.392015457E-1,-8.437919617E-2,7.365465164E-2
3.127138698E1,3.364760876E-1,4.138946533E-3,-2.633237839E-2
3.129130625E1,3.937878609E-1,4.052734375E-2,-3.208923340E-2
3.131121849E1,4.533762932E-1,4.203796387E-2,-1.064276695E-2
3.133110286E1,5.471272469E-1,3.896617889E-2,-9.685206413E-2
3.135095286E1,6.113245487E-1,1.226491928E-1,-2.034869194E-1
3.137089515E1,5.931422710E-1,1.748714447E-1,-2.240896225E-1
3.139076927E1,5.546438694E-1,2.272911072E-1,-2.063913345E-1
3.141061989E1,4.914157391E-1,2.332715988E-1,-2.269883156E-1
3.143053192E1,4.870791435E-1,2.873563766E-1,-2.104732990E-1
3.145042911E1,5.169963837E-1,2.864475250E-1,-1.957066059E-1
3.147031250E1,4.696395397E-1,2.513027191E-1,-1.803753376E-1
3.149024885E1,4.101004601E-1,2.802858353E-1,-1.667375565E-1
3.151014771E1,4.052212238E-1,3.129053116E-1,-1.683006287E-1
3.153001167E1,4.349298477E-1,2.448987961E-1,-1.842854023E-1
3.154990094E1,3.936095238E-1,1.755685806E-1,-1.237337589E-1
3.156978979E1,3.283929825E-1,1.518449783E-1,-1.103117466E-1
3.158968656E1,3.544721603E-1,1.714820862E-1,-1.400489807E-1
3.160958739E1,3.942461014E-1,1.860742569E-1,-1.751697063E-1
3.162943818E1,4.021644592E-1,2.260017395E-1,-1.879258156E-1
3.164933213E1,4.140844345E-1,2.233972549E-1,-2.418802977E-1
3.166923495E1,3.506608009E-1,2.607164383E-1,-1.975609064E-1
3.168914417E1,2.187914848E-1,3.324604034E-1,-6.521213055E-2
3.170903411E1,1.565165520E-1,3.763246536E-1,-1.049542427E-2
3.172891687E1,1.195425987E-1,3.059749603E-1,5.793738365E-2
3.174880692E1,4.075622559E-2,2.225170135E-1,1.620831490E-1
3.176869219E1,-5.652236938E-2,2.649564743E-1,2.346765995E-1
3.178860927E1,-1.180529594E-1,3.306846619E-1,2.100520134E-1
3.180848359E1,-8.715152740E-2,2.978067398E-1,1.707961559E-1
3.182841489E1,-4.300308228E-2,2.046012878E-1,2.073829174E-1
3.184828479E1,-6.317234039E-2,1.043157578E-1,1.482930183E-1
3.186818104E1,-7.346582413E-2,1.272392273E-2,5.799531937E-2
3.188805364E1,-4.969882965E-2,-3.610706329E-2,-5.113363266E-3
3.190794953E1,-4.540443420E-2,-6.227111816E-2,-1.625418663E-2
3.192782890E1,-5.747556686E-2,-1.452693939E-1,-2.078890800E-2
3.194771807E1,-2.596139908E-2,-1.887140274E-1,-6.510722637E-2
3.196763635E1,5.781984329E-2,-1.138191223E-1,-1.354031563E-1
3.198751354E1,1.393198967E-1,-3.622055054E-3,-7.767927647E-2
3.200741771E1,1.041278839E-1,2.799987793E-2,-2.392268181E-2
3.202727995E1,6.462001801E-2,2.114486694E-2,-1.360774040E-2
3.204721344E1,7.279157639E-2,-3.477764130E-2,-5.315780640E-3
3.206706792E1,1.137585640E-1,-6.389617920E-2,1.568078995E-2
3.208696083E1,8.591508865E-2,-1.155710220E-1,-2.053487301E-2
3.210684448E1,-6.862163544E-3,-1.448383331E-1,-1.704454422E-2
3.212674484E1,-1.072349548E-1,-1.478538513E-1,4.263567924E-2
3.214662823E1,-2.639923096E-1,-1.575241089E-1,6.140244007E-2
3.216653177E1,-3.626585007E-1,-1.968393326E-1,4.823100567E-2
3.218642276E1,-3.588299751E-1,-2.310066223E-1,1.732981205E-2
3.220634651E1,-3.505330086E-1,-2.662734985E-1,5.209290981E-2
3.222623474E1,-3.529763222E-1,-2.952604294E-1,6.991910934E-2
3.224608130E1,-4.185037613E-1,-3.294773102E-1,7.823574543E-2
3.226596755E1,-4.669513702E-1,-3.217630386E-1,1.194093227E-1
3.228588864E1,-5.038905144E-1,-2.757492065E-1,1.448193789E-1
3.230576312E1,-5.101356506E-1,-2.488126755E-1,1.777919531E-1
3.232565026E1,-5.004634857E-1,-2.567062378E-1,1.705108881E-1
3.234556916E1,-4.894843102E-1,-2.524147034E-1,1.977548599E-1
3.236546974E1,-4.632029533E-1,-1.968946457E-1,2.235803604E-1
3.238532807E1,-4.789247513E-1,-1.698980331E-1,2.403730154E-1
3.240526364E1,-4.728245735E-1,-1.214923859E-1,2.049862146E-1
3.242516130E1,-4.649267197E-1,-8.278560638E-2,1.489585638E-1
3.244501000E1,-4.435229301E-1,-3.240013123E-2,1.488798857E-1
3.246490208E1,-4.410743713E-1,-2.100658417E-2,1.035784483E-1
3.248480823E1,-4.339504242E-1,-1.710414886E-2,1.018413305E-1
3.250472344E1,-4.309926033E-1,-4.569721222E-2,1.032264233E-1
3.252460484E1,-4.002246857E-1,-7.597064972E-2,1.012191772E-1
3.254446547E1,-3.648290634E-1,-8.325767517E-2,1.013997793E-1
3.256437500E1,-2.857503891E-1,-6.171417236E-2,1.303808689E-1
3.258428073E1,-2.141194344E-1,-5.594921112E-2,1.236736774E-1
3.260417604E1,-1.904425621E-1,-1.158409119E-1,6.833434105E-2
3.262404083E1,-2.046284676E-1,-1.606340408E-1,8.095669746E-2
3.264394521E1,-1.451849937E-1,-1.653804779E-1,1.158635616E-1
3.266384177E1,-5.455350876E-2,-1.434793472E-1,6.892919540E-2
3.268373354E1,2.402067184E-2,-8.040523529E-2,1.450896263E-2
3.270360776E1,8.786249161E-2,-1.280307770E-2,-2.582836151E-2
3.272349083E1,1.969046593E-1,3.651618958E-2,-3.279709816E-2
3.274339068E1,3.060026169E-1,5.689716339E-2,-1.731181145E-2
3.276328729E1,3.659482002E-1,1.095638275E-1,-7.045507431E-3
3.278320245E1,3.925509453E-1,1.415834427E-1,-2.568721771E-3
3.280309073E1,4.308218956E-1,2.334709167E-1,-3.650879860E-2
3.282294828E1,4.530158043E-1,2.858943939E-1,-6.481099129E-2
3.284286844E1,4.700207710E-1,2.587137222E-1,-1.349766254E-1
3.286275760E1,4.773421288E-1,1.909866333E-1,-1.784751415E-1
3.288264323E1,5.121927261E-1,9.293842316E-2,-1.349046230E-1
3.290255588E1,5.514245033E-1,-3.371810913E-2,-1.376309395E-1
3.292243969E1,5.182766914E-1,-1.475687027E-1,-1.408841610E-1
3.294234125E1,5.340642929E-1,-1.395549774E-1,-1.315259933E-1
3.296226531E1,5.130076408E-1,-5.696201324E-2,-1.444668770E-1
3.298207979E1,4.546217918E-1,7.250118256E-2,-1.114232540E-1
3.300200187E1,3.970084190E-1,1.827392578E-1,-1.071631908E-1
3.302189916E1,3.243737221E-1,3.024883270E-1,-1.215825081E-1
3.304176531E1,2.236614227E-1,3.658628464E-1,-1.274933815E-1
3.306165651E1,1.094450951E-1,3.716001511E-1,-1.251143217E-1
3.308155292E1,4.259920120E-2,3.501672745E-1,-1.890727282E-1
3.310146625E1,-1.737213135E-2,3.480186462E-1,-2.581300735E-1
3.312133312E1,-8.142852783E-2,3.242063522E-1,-2.507560253E-1
3.314123812E1,-8.888244629E-2,2.818536758E-1,-2.317403555E-1
3.316113385E1,-3.452825546E-2,2.792329788E-1,-2.257540226E-1
3.318101969E1,2.202177048E-2,2.776422501E-1,-2.094973326E-1
3.320089661E1,4.111862183E-2,2.652959824E-1,-1.322132349E-1
3.322080989E1,4.999828339E-2,2.063388824E-1,-5.376458168E-2
3.324068495E1,7.493782043E-2,1.538419724E-1,-2.636122704E-2
3.326058224E1,1.520748138E-1,1.514072418E-1,-2.056002617E-2
3.328047338E1,2.057189941E-1,1.086740494E-1,-4.165196419E-2
3.330037375E1,2.103424072E-1,6.398296356E-2,-6.664967537E-2
3.332028396E1,1.814866066E-1,5.879688263E-2,-5.957794189E-2
3.334018026E1,1.452116966E-1,6.191253662E-3,-7.396054268E-2
3.336005573E1,9.026384354E-2,-4.078865051E-2,-9.475135803E-2
3.337994229E1,8.301258087E-2,-7.824993134E-2,-4.855251312E-2
3.339982390E1,1.133952141E-1,-8.087730408E-2,-1.981949806E-2
3.341973666E1,8.933210373E-2,-3.775310516E-2,-4.534053802E-2
3.343960890E1,-8.418560028E-3,2.115058899E-2,-1.937985420E-2
3.345951260E1,-1.265454292E-1,2.863597870E-2,4.964327812E-2
3.347940260E1,-1.936354637E-1,1.568508148E-2,8.316874504E-2
3.349929333E1,-2.338352203E-1,-2.750873566E-2,1.352674961E-1
3.351916927E1,-3.221292496E-1,-5.542469025E-2,2.427814007E-1
3.353906880E1,-4.071187973E-1,-9.418678284E-2,3.164780140E-1
3.355897260E1,-4.319257736E-1,-1.800622940E-1,3.002865314E-1
3.357887755E1,-4.590454102E-1,-2.620763779E-1,2.603819370E-1
3.359876927E1,-3.190536499E-1,-2.620954514E-1,2.048482895E-1
3.361862416E1,-1.653361320E-1,-3.491935730E-1,2.975535393E-2
3.363852588E1,-1.416954994E-1,-4.185738564E-1,-8.028721809E-2
3.365842916E1,-1.087493896E-1,-4.279170036E-1,-5.794048309E-2
3.367833943E1,-9.358692169E-2,-4.738316536E-1,-1.573398113E-1
3.369822375E1,-1.256952286E-1,-5.043721199E-1,-2.326548100E-1
3.371809729E1,-1.465229988E-1,-4.114322662E-1,-2.069568634E-1
3.373798265E1,-1.194314957E-1,-3.255386353E-1,-2.140972614E-1
3.375789739E1,-1.181526184E-1,-2.981128693E-1,-1.829078197E-1
3.377777729E1,-1.775751114E-1,-2.772636414E-1,-1.282770634E-1
3.379766104E1,-2.458987236E-1,-1.883964539E-1,-6.800436974E-2
3.381756510E1,-2.697606087E-1,-6.606960297E-2,-8.308887482E-4
3.383746286E1,-3.218431473E-1,3.250122070E-3,7.058596611E-2
3.385732995E1,-3.547277451E-1,4.702663422E-2,1.664118767E-1
3.387723458E1,-3.633079529E-1,5.683231354E-2,2.811777592E-1
3.389714120E1,-3.979463577E-1,7.564353943E-2,3.052554131E-1
3.391702635E1,-4.554443359E-1,5.659866333E-2,3.398125172E-1
3.393692521E1,-4.901027679E-1,-5.655765533E-2,3.386805058E-1
3.395681958E1,-5.088486671E-1,-9.475898743E-2,3.053355217E-1
3.397670281E1,-5.338492393E-1,-1.120920181E-1,2.625293732E-1
3.399656406E1,-5.021414757E-1,-1.304712296E-1,2.217099667E-1
3.401649573E1,-4.168596268E-1,-1.577386856E-1,1.535916328E-1
3.403637396E1,-2.894496918E-1,-1.361322403E-1,8.988833427E-2
3.405626099E1,-2.131118774E-1,-1.410379410E-1,6.555843353E-2
3.407615276E1,-1.160459518E-1,-1.388921738E-1,1.243996620E-2
3.409601885E1,3.982210159E-2,-9.773540497E-2,-5.734252930E-2
3.411591771E1,2.255129814E-1,-5.330562592E-2,-7.332086563E-2
3.413579422E1,3.353934288E-1,6.816864014E-3,-5.314350128E-2
3.415570234E1,3.980298042E-1,8.260536194E-2,-3.800201416E-2
3.417559646E1,4.422855377E-1,9.100246429E-2,-1.021549702E-1
3.419548286E1,5.265407562E-1,6.585597992E-2,-9.453225136E-2
3.421537349E1,5.962204933E-1,6.926345825E-2,-3.421425819E-2
3.423527458E1,5.879626274E-1,1.358118057E-1,-6.043958664E-2
3.425520963E1,5.118412971E-1,1.454429626E-1,-1.118667126E-1
3.427504693E1,4.468793869E-1,1.781215668E-1,-6.636261940E-2
3.429494411E1,4.020876884E-1,1.702880859E-1,-3.234720230E-2
3.431483969E1,4.066357613E-1,1.593523026E-1,-7.720184326E-2
3.433472672E1,3.545484543E-1,1.728410721E-1,-1.578674316E-1
3.435461776E1,2.470960617E-1,1.858558655E-1,-1.784210205E-1
3.437453380E1,1.737914085E-1,2.005596161E-1,-1.593694687E-1
3.439441052E1,1.483397484E-1,1.357431412E-1,-1.900691986E-1
3.441433828E1,1.533327103E-1,1.518650055E-1,-1.998317242E-1
3.443424703E1,1.799955368E-1,2.481098175E-1,-1.293110847E-1
3.445408620E1,2.131962776E-1,2.829408646E-1,-4.747009277E-2
3.447396963E1,2.072663307E-1,3.143796921E-1,-1.461672783E-2
3.449389531E1,1.687717438E-1,3.216667175E-1,-6.855249405E-3
3.451375359E1,1.714563370E-1,3.071022034E-1,4.373979568E-2
3.453364463E1,2.408771515E-1,3.219242096E-1,-5.781412125E-3
3.455354719E1,2.550320625E-1,3.280773163E-1,-6.729364395E-2
3.457344635E1,2.216200829E-1,3.414840698E-1,-8.967089653E-2
3.459334094E1,2.139239311E-1,3.390522003E-1,-1.311349869E-1
3.461324745E1,2.519145012E-1,2.958488464E-1,-1.586854458E-1
3.463316370E1,2.632756233E-1,2.482767105E-1,-1.532542706E-1
3.465301599E1,2.500000000E-1,2.318582535E-1,-1.830899715E-1
3.467291646E1,2.594184875E-1,2.943286896E-1,-1.985106468E-1
3.469280635E1,1.923165321E-1,3.568000793E-1,-8.387255669E-2
3.471269318E1,6.282138824E-2,4.477405548E-1,8.983850479E-2
3.473257885E1,-1.046371460E-2,4.629697800E-1,1.435575485E-1
3.475247906E1,-1.722002029E-2,3.802900314E-1,1.340122223E-1
3.477238677E1,-2.081584930E-2,2.732362747E-1,1.350200176E-1
3.479229307E1,1.024723053E-2,5.952548981E-2,9.904551506E-2
3.481218828E1,5.357551575E-2,-8.522510529E-2,1.139497757E-2
3.483204109E1,8.996582031E-2,-2.003755569E-1,-1.154489517E-1
3.485193739E1,1.344580650E-1,-3.055772781E-1,-1.717021465E-1
3.487183578E1,2.047653198E-1,-2.786407471E-1,-1.670029163E-1
3.489172562E1,2.583136559E-1,-2.445507050E-1,-1.478962898E-1
3.491161729E1,2.688984871E-1,-2.889785767E-1,-1.450593472E-1
3.493147698E1,2.593607903E-1,-3.337574005E-1,-1.508226395E-1
3.495137130E1,2.364492416E-1,-3.527746201E-1,-1.067759991E-1
3.497128437E1,1.711783409E-1,-3.926935196E-1,-5.934906006E-2
3.499118916E1,4.204845428E-2,-4.018449783E-1,1.230573654E-2
3.501104713E1,-4.979562759E-2,-3.629188538E-1,3.512692451E-2
3.503097031E1,-1.182789803E-1,-3.013257980E-1,3.652095795E-2
3.505086198E1,-1.792950630E-1,-2.134895325E-1,8.332252502E-2
3.507072255E1,-2.547545433E-1,-1.741847992E-1,2.136588097E-2
3.509061286E1,-3.128676414E-1,-1.292009354E-1,-4.796695709E-2
3.511050224E1,-3.681106567E-1,-1.144161224E-1,-6.719517708E-2
3.513040635E1,-4.288282394E-1,-1.331968307E-1,6.978273392E-2
3.515030166E1,-4.869418144E-1,-1.656179428E-1,1.917548180E-1
3.517020739E1,-3.933763504E-1,-1.309537888E-1,1.928477287E-1
3.519010213E1,-2.595629692E-1,-1.081161499E-1,2.357807159E-1
3.520999870E1,-2.396764755E-1,-1.021394730E-1,2.598497868E-1
3.522988510E1,-3.474488258E-1,-1.555509567E-1,2.732925415E-1
3.524975078E1,-4.810967445E-1,-2.145528793E-1,1.992452145E-1
3.526964015E1,-5.175075531E-1,-2.073364258E-1,1.235537529E-1
3.528954646E1,-5.016393661E-1,-1.498947144E-1,1.012444496E-1
3.530944792E1,-4.940137863E-1,-8.138751984E-2,1.281583309E-1
3.532934739E1,-5.220947266E-1,-1.043062210E-1,1.550357342E-1
3.534921458E1,-5.230350494E-1,-1.341648102E-1,1.252920628E-1
3.536910068E1,-5.047159195E-1,-1.312265396E-1,1.235249043E-1
3.538902344E1,-5.010066032E-1,-1.360712051E-1,1.360281706E-1
3.540890844E1,-4.861903191E-1,-1.715736389E-1,1.107295752E-1
3.542880635E1,-4.768948555E-1,-1.860198975E-1,1.286250353E-1
3.544865812E1,-3.970980644E-1,-1.075944901E-1,1.263724566E-1
3.546857015E1,-3.433480263E-1,-6.174278259E-2,7.692539692E-2
3.548847437E1,-3.408460617E-1,-1.521587372E-2,1.346105337E-1
3.550839370E1,-3.288741112E-1,-3.055000305E-2,1.936415434E-1
3.552827505E1,-2.581834793E-1,-2.276897430E-2,1.742038727E-1
3.554816260E1,-1.716008186E-1,2.807044983E-2,1.277089119E-1
3.556803057E1,-2.026462555E-1,5.141258240E-2,1.029474735E-1
3.558792604E1,-2.846670151E-1,5.890846252E-2,4.958796501E-2
3.560787672E1,-2.780432701E-1,6.122684479E-2,-2.119898796E-2
3.562768979E1,-1.960697174E-1,5.352020264E-2,-4.952323437E-2
3.564758828E1,-6.841802597E-2,3.655147552E-2,-6.969797611E-2
3.566750156E1,2.806711197E-2,1.770782471E-2,-8.006536961E-2
3.568738010E1,1.599879265E-1,3.425884247E-2,-1.285862923E-1
3.570725943E1,3.144636154E-1,5.910873413E-3,-1.293531656E-1
3.572718942E1,4.258494377E-1,-1.081752777E-2,-3.552818298E-2
3.574705922E1,4.581861496E-1,1.721763611E-2,-4.031968117E-2
3.576694911E1,4.744954109E-1,7.943916321E-2,-1.408052444E-1
3.578681870E1,4.875669479E-1,1.594324112E-1,-1.420340538E-1
3.580673969E1,5.112113953E-1,1.822328568E-1,-7.681393623E-2
3.582663177E1,4.582891464E-1,1.439628601E-1,-1.045546532E-1
3.584652250E1,3.755016327E-1,1.119403839E-1,-1.587589979E-1
3.586641937E1,3.399205208E-1,1.159868240E-1,-1.347576380E-1
3.588633995E1,3.533186913E-1,1.208181381E-1,-1.049346924E-1
3.590622844E1,3.778648376E-1,1.176242828E-1,-1.644227505E-1
3.592609411E1,3.451657295E-1,1.429910660E-1,-1.262631416E-1
3.594595437E1,2.830491066E-1,1.985025406E-1,-6.069636345E-2
3.596587406E1,2.221212387E-1,2.163228989E-1,-8.902597427E-2
3.598577578E1,1.695694923E-1,2.500705719E-1,-8.630990982E-2
3.600565411E1,1.839661598E-1,2.542095184E-1,-5.261111259E-2
3.602556312E1,2.076973915E-1,2.529363632E-1,-3.510427475E-2
3.604541844E1,2.101812363E-1,2.669324875E-1,-5.317497253E-2
3.606531213E1,1.314282417E-1,2.813329697E-1,-1.003487110E-1
3.608522979E1,1.260542870E-1,3.165864944E-1,-8.829951286E-2
3.610510661E1,1.849741936E-1,3.481702805E-1,-1.274461746E-1
3.612499849E1,2.788896561E-1,3.438911438E-1,-1.085808277E-1
3.614489125E1,3.478350639E-1,2.755165100E-1,-1.095194817E-1
3.616478573E1,3.864302635E-1,2.265357971E-1,-1.036438942E-1
3.618466198E1,3.682703972E-1,1.782445908E-1,-9.673023224E-2
3.620455828E1,3.385615349E-1,1.462631226E-1,-1.181695461E-1
3.622448297E1,3.217978477E-1,1.774425507E-1,-1.188354492E-1
3.624435042E1,3.481745720E-1,2.162370682E-1,-1.507978439E-1
3.626425562E1,3.155231476E-1,1.492652893E-1,-1.492123604E-1
3.628413771E1,2.881193161E-1,6.867313385E-2,-8.781933784E-2
3.630403916E1,2.797188759E-1,2.520561218E-3,-1.060791016E-1
3.632390552E1,2.427730560E-1,-2.787399292E-2,-1.597874165E-1
3.634382677E1,2.647213936E-1,-3.895378113E-2,-1.021678448E-1
3.636369781E1,2.978038788E-1,-1.054191589E-1,-3.561592102E-2
3.638360698E1,2.512412071E-1,-1.577415466E-1,-2.023220062E-3
3.640347099E1,1.444692612E-1,-1.663103104E-1,5.177545547E-2
3.642336161E1,7.557487488E-2,-1.677398682E-1,8.954596519E-2
3.644326666E1,2.722072601E-2,-1.513862610E-1,1.703691483E-1
3.646320750E1,1.656913757E-2,-1.214008331E-1,2.039422989E-1
3.648305640E1,1.575469971E-3,-8.011341095E-2,1.479082108E-1
3.650294568E1,-5.536699295E-2,-6.321239471E-2,1.149485111E-1
3.652285729E1,-1.414122581E-1,-9.293937683E-2,1.430356503E-1
3.654274708E1,-2.091341019E-1,-1.276865005E-1,1.072955132E-1
3.656263031E1,-2.731494904E-1,-1.369276047E-1,5.258107185E-2
3.658251130E1,-3.368339539E-1,-1.033363342E-1,2.990722656E-2
3.660242510E1,-3.823571205E-1,-7.737445831E-2,2.217650414E-2
3.662232640E1,-4.399785995E-1,-6.197166443E-2,4.700565338E-2
3.664224495E1,-5.329813957E-1,-5.927085876E-2,7.276439667E-2
3.666207755E1,-5.960173607E-1,-1.036386490E-1,2.409029007E-2
3.668198703E1,-5.800333023E-1,-1.920366287E-1,4.584312439E-3
3.670188917E1,-5.347213745E-1,-2.510452271E-1,4.372239113E-2
3.672176370E1,-4.747896194E-1,-2.876510620E-1,6.454801559E-2
3.674163318E1,-4.317436218E-1,-3.158273697E-1,6.558966637E-2
3.676154297E1,-4.477376938E-1,-3.048048019E-1,7.872366905E-2
3.678141942E1,-4.790353775E-1,-2.761402130E-1,1.313738823E-1
3.680130818E1,-4.862728119E-1,-2.302045822E-1,1.322157383E-1
3.682122646E1,-4.522747993E-1,-2.376194000E-1,7.262897491E-2
3.684109078E1,-4.289684296E-1,-2.717542648E-1,8.307337761E-2
3.686101260E1,-4.709248543E-1,-2.344532013E-1,1.417498589E-1
3.688092797E1,-5.119447708E-1,-1.352033615E-1,1.163043976E-1
3.690078864E1,-5.034589767E-1,-8.797359467E-2,1.233968735E-1
3.692069646E1,-4.356775284E-1,-7.921886444E-2,1.722743511E-1
3.694058010E1,-3.405094147E-1,-7.237720490E-2,1.554954052E-1
3.696045052E1,-3.047370911E-1,-6.661033630E-2,1.461770535E-1
3.698035989E1,-2.895102501E-1,-6.794071198E-2,1.682693958E-1
3.700025406E1,-2.011218071E-1,-5.594730377E-2,1.869339943E-1
3.702014667E1,-1.465296745E-1,-5.673217773E-2,1.306519508E-1
3.704002312E1,-1.062631607E-1,-4.953575134E-2,7.307982445E-2
3.705992396E1,-7.194042206E-2,-4.953670502E-2,5.707335472E-2
3.707980390E1,8.054733276E-3,-1.142416000E-1,2.608895302E-2
3.709970479E1,9.069824219E-2,-1.442928314E-1,-5.816936493E-2
3.711958750E1,1.397981644E-1,-1.267127991E-1,-7.481479645E-2
3.713949495E1,2.095360756E-1,-1.023731232E-1,-6.849956512E-2
3.715939156E1,2.947635651E-1,-8.047676086E-2,-5.462336540E-2
3.717928271E1,3.396716118E-1,-1.317310333E-2,-1.268124580E-2
3.719915656E1,3.398694992E-1,8.605289459E-2,8.082389832E-5
3.721903547E1,3.293156624E-1,1.938028336E-1,4.089832306E-3
3.723895453E1,3.178315163E-1,2.596368790E-1,-6.003379822E-3
3.725881953E1,3.549113274E-1,2.563190460E-1,-3.897523880E-2
3.727873042E1,3.587679863E-1,2.793598175E-1,-5.508995056E-2
3.729863495E1,3.524837494E-1,3.197994232E-1,-7.318496704E-2
3.731849073E1,3.682441711E-1,3.355283737E-1,-1.412620544E-1
3.733842974E1,3.760352135E-1,3.485956192E-1,-1.809859276E-1
3.735832062E1,4.015841484E-1,3.080139160E-1,-2.136783600E-1
3.737819937E1,3.465538025E-1,2.314720154E-1,-2.186055183E-1
3.739808614E1,2.829303741E-1,1.770210266E-1,-2.293930054E-1
3.741795573E1,2.383255959E-1,1.160879135E-1,-2.049093246E-1
3.743788505E1,2.240300179E-1,1.022415161E-1,-1.320140362E-1
3.745776646E1,1.800503731E-1,1.528644562E-1,-6.456398964E-2
3.747764713E1,1.104302406E-1,1.906518936E-1,-2.251839638E-2
3.749754750E1,6.496429443E-2,1.476993561E-1,1.369261742E-2
3.751742536E1,6.274271011E-2,8.192729950E-2,1.345515251E-2
3.753730599E1,7.255458832E-2,5.204868317E-2,-7.350444794E-4
3.755723713E1,6.968784332E-2,5.966472626E-2,-4.401278496E-2
3.757711073E1,1.261734962E-1,1.127500534E-1,-7.167172432E-2
3.759700166E1,1.672167778E-1,1.815834045E-1,-5.477786064E-2
3.761690604E1,1.652250290E-1,2.005243301E-1,-8.944416046E-2
3.763678969E1,1.805481911E-1,1.496706009E-1,-1.161363125E-1
3.765667307E1,2.079634666E-1,9.831333160E-2,-1.321575642E-1
3.767655609E1,3.018774986E-1,1.257600784E-1,-1.343855858E-1
3.769646750E1,2.903962135E-1,1.534776688E-1,-1.332736015E-1
3.771634292E1,1.805467606E-1,1.613178253E-1,-9.891915321E-2
3.773625963E1,1.442794800E-1,1.123781204E-1,-4.292392731E-2
3.775614323E1,1.373658180E-1,7.142543793E-2,-3.919434547E-2
3.777603786E1,1.111240387E-1,6.619548798E-2,-6.404399872E-2
3.779592292E1,9.404945374E-2,4.870700836E-2,-6.374788284E-2
3.781580302E1,9.037685394E-2,2.378273010E-2,-3.855180740E-2
3.783570281E1,7.699441910E-2,-7.802009583E-3,-4.805660248E-2
3.785559083E1,7.097244263E-2,-7.783031464E-2,-5.677509308E-2
3.787547703E1,7.445478439E-2,-9.701156616E-2,1.408267021E-2
3.789537068E1,1.243891716E-1,-8.310890198E-2,7.146883011E-2
3.791524812E1,1.462268829E-1,-3.464794159E-2,1.746582985E-2
3.793522427E1,1.085405350E-1,-4.219055176E-3,5.837440491E-3
3.795505651E1,4.556512833E-2,-3.283023834E-2,6.005668640E-2
3.797492370E1,-1.385879517E-2,-9.434890747E-2,2.653884888E-2
3.799484937E1,-8.169031143E-2,-1.021013260E-1,-1.785969734E-2
3.801472021E1,-1.650528908E-1,-3.713035583E-2,3.548908234E-2
3.803461687E1,-2.092008591E-1,1.246070862E-2,6.721830368E-2
3.805449380E1,-2.404413223E-1,7.027626038E-3,7.497262955E-2
3.807438531E1,-2.598681450E-1,-4.073619843E-2,1.210613251E-1
3.809429526E1,-2.286138535E-1,-8.389568329E-2,1.281316280E-1
3.811418448E1,-1.781644821E-1,-1.346235275E-1,1.390516758E-1
3.813405057E1,-1.524004936E-1,-1.901502609E-1,1.498403549E-1
3.815397344E1,-1.515569687E-1,-2.333431244E-1,1.278038025E-1
3.817385083E1,-1.676082611E-1,-2.732992172E-1,8.404541016E-2
3.819373073E1,-1.855020523E-1,-2.771997452E-1,3.483748436E-2
3.821361906E1,-1.927871704E-1,-2.622146606E-1,-7.391214371E-3
3.823352479E1,-2.287287712E-1,-2.221927643E-1,-1.828122139E-2
3.825341312E1,-2.932686806E-1,-1.958055496E-1,-1.396584511E-2
3.827329073E1,-3.028187752E-1,-1.965055466E-1,7.087683678E-2
3.829319187E1,-3.052520752E-1,-1.810207367E-1,1.019561291E-1
3.831307776E1,-3.123874664E-1,-2.171802521E-1,9.313225746E-2
3.833297864E1,-2.889561653E-1,-1.989755630E-1,1.410939693E-1
3.835289802E1,-2.949466705E-1,-2.064476013E-1,1.634292603E-1
3.837279922E1,-2.881016731E-1,-2.124700546E-1,1.894991398E-1
3.839267969E1,-3.405661583E-1,-2.745418549E-1,1.343116760E-1
3.841255844E1,-4.013371468E-1,-2.170228958E-1,1.283447742E-1
3.843244630E1,-4.365205765E-1,-8.802413940E-2,1.381700039E-1
3.845236068E1,-5.015130043E-1,-5.373287201E-2,9.357261658E-2
3.847225588E1,-5.610432625E-1,-4.606246948E-3,1.303210258E-1
3.849217635E1,-5.887703896E-1,-2.088069916E-2,1.775341034E-1
3.851202489E1,-5.669507980E-1,-2.578353882E-2,1.524643898E-1
3.853191031E1,-5.029754639E-1,-2.747344971E-2,1.186265945E-1
3.855180557E1,-3.783884048E-1,-8.423805237E-3,9.156537056E-2
3.857171844E1,-2.482452393E-1,-1.159667969E-3,5.778813362E-2
3.859156864E1,-1.417064667E-1,-2.330589294E-2,2.487206459E-2
3.861148114E1,-7.452392578E-2,-4.113674164E-2,3.955173492E-2
3.863138021E1,-2.481698990E-2,-1.211166382E-3,1.293897629E-3
3.865126026E1,6.727743149E-2,2.914428711E-2,-4.387211800E-2
3.867118344E1,1.812372208E-1,4.006481171E-2,-2.169799805E-2
3.869103078E1,2.802457809E-1,5.070400238E-2,-8.852005005E-3
3.871094177E1,2.982282639E-1,5.875778198E-2,7.190704346E-4
3.873084979E1,2.995491028E-1,1.057109833E-1,1.336908340E-2
3.875073396E1,3.460426331E-1,1.065645218E-1,-2.347230911E-3
3.877062042E1,4.150419235E-1,1.368007660E-1,3.073453903E-3
3.879052260E1,4.914684296E-1,1.591777802E-1,-2.580213547E-2
3.881038573E1,5.777428150E-1,1.181602478E-1,-5.863642693E-2
3.883028406E1,6.321423054E-1,1.106166840E-1,-7.794451714E-2
3.885020380E1,6.789896488E-1,1.144180298E-1,-1.806774139E-1
3.887009932E1,6.835582256E-1,1.321535110E-1,-2.420401573E-1
3.888994422E1,6.188023090E-1,9.262084961E-2,-2.847721577E-1
3.890987349E1,5.199236870E-1,4.984951019E-2,-3.241863251E-1
3.892976323E1,4.826512337E-1,5.975627899E-2,-3.107898235E-1
3.894961880E1,5.002655983E-1,9.292030334E-2,-2.791111469E-1
3.896953573E1,4.816231728E-1,1.232013702E-1,-2.835862637E-1
3.898944901E1,3.824763298E-1,1.359577179E-1,-2.553927898E-1
3.900933104E1,1.958250999E-1,1.098546982E-1,-2.802675962E-1
3.902922125E1,-8.152484894E-3,7.745075226E-2,-2.777590752E-1
3.904908828E1,-3.696775436E-2,1.533699036E-2,-2.672432661E-1
3.906900187E1,8.125162125E-2,3.933906555E-3,-2.601988316E-1
3.908889906E1,1.511192322E-1,7.734203339E-2,-2.704273462E-1
3.910877250E1,1.734828949E-1,2.058687210E-1,-2.114925385E-1
3.912864682E1,7.649421692E-2,2.425651550E-1,-8.763098717E-2
3.914854552E1,-5.358743668E-2,2.660837173E-1,-2.555179596E-2
3.916844594E1,-3.177833557E-2,3.506126404E-1,-9.799003601E-5
3.918836979E1,1.679477692E-1,4.450750351E-1,5.152487755E-2
3.920827989E1,3.340430260E-1,5.169677734E-1,3.916084766E-2
3.922812604E1,3.409943581E-1,4.916467667E-1,2.379345894E-2
3.924803036E1,8.571243286E-2,4.038295746E-1,1.443516016E-1
3.926791646E1,-1.330432892E-1,4.393577576E-1,1.982380152E-1
3.928777833E1,-2.790484428E-1,4.791841507E-1,9.276604652E-2
3.930769015E1,-2.981238365E-1,5.079717636E-1,1.227891445E-1
3.932758469E1,-2.763676643E-1,4.536294937E-1,2.593404055E-1
3.934748354E1,-2.589330673E-1,4.057159424E-1,2.630374432E-1
3.936735463E1,-2.536382675E-1,3.232755661E-1,2.163176537E-1
3.938724005E1,-2.720055580E-1,2.140531540E-1,2.147290707E-1
3.940716963E1,-2.464656830E-1,2.082366943E-1,3.052542210E-1
3.942702359E1,-2.184247971E-1,1.437873840E-1,1.605901718E-1
3.944691588E1,-2.001409531E-1,9.361934662E-2,9.494304657E-3
3.946680297E1,-1.691722870E-1,4.484462738E-2,8.356595039E-2
