"Time (s)","Linear Acceleration x (m/s^2)","Linear Acceleration y (m/s^2)","Linear Acceleration z (m/s^2)"
4.565313100E-2,-1.912650317E-1,6.074076891E-1,1.954135895E-1
6.559844300E-2,-3.863666952E-1,2.732274532E-1,4.987049103E-1
8.543516200E-2,-4.629767537E-1,4.646220803E-1,6.736774445E-1
1.053303700E-1,-8.869620562E-1,7.770271897E-1,9.938850403E-1
1.252477660E-1,-1.360984087E0,8.301926851E-1,1.101180077E0
1.451208390E-1,-1.120646477E0,6.051844954E-1,8.318328857E-1
1.650103700E-1,-1.182029128E0,3.473103046E-3,9.089555740E-1
1.849019850E-1,-2.000201702E0,-6.066476107E-1,1.333214760E0
2.048429220E-1,-2.023124933E0,-9.201450944E-1,1.625448227E0
2.247081310E-1,-1.204694510E0,-1.614660740E0,1.134386063E0
2.445760990E-1,-9.462337941E-2,-2.415915251E0,5.377759933E-1
2.644641200E-1,9.231866598E-1,-2.379012346E0,5.042600632E-1
2.843739640E-1,1.029285669E0,-2.525904894E0,1.271553040E0
3.042435470E-1,9.957827330E-1,-3.180953026E0,1.790062904E0
3.241500580E-1,9.084134102E-1,-3.736170053E0,1.365468025E0
3.440570890E-1,6.552586555E-1,-4.111806870E0,7.758398056E-1
3.639368810E-1,-1.791251600E-1,-4.238798618E0,9.354410172E-1
3.838365160E-1,-1.506253958E0,-3.845061779E0,1.494191170E0
4.037482350E-1,-2.281894207E0,-3.292704582E0,1.440632820E0
4.236316720E-1,-2.991263390E0,-2.797779083E0,5.594329834E-1
4.435281310E-1,-3.183772087E0,-2.260576725E0,-3.518638611E-1
4.634201100E-1,-2.726227999E0,-1.562757015E0,-1.595096588E-1
4.832733910E-1,-1.870605469E0,-2.131057978E-1,7.383718491E-1
5.031750580E-1,-1.237164021E0,1.462740183E0,1.163574219E0
5.230900060E-1,-8.574826717E-1,2.600493908E0,6.698503494E-1
5.429951620E-1,-3.554744720E-1,2.824759245E0,4.228878021E-2
5.628918810E-1,3.485612869E-1,2.121801376E0,-5.438661575E-1
5.827827140E-1,7.731795311E-1,1.180917740E0,-1.094534397E0
6.026614640E-1,1.014949203E0,1.672840118E-2,-1.175111771E0
6.225506310E-1,1.204967976E0,-1.350689888E0,-4.552845955E-1
6.424475060E-1,2.169360638E0,-2.522897005E0,-3.934637547E0
6.623058910E-1,2.460561037E0,-2.878131866E0,-5.431163788E0
6.822299020E-1,1.927347541E0,-2.450676918E0,-1.770662308E0
7.021396930E-1,7.043965459E-1,-2.178641319E0,1.183283806E0
7.219935990E-1,-1.240929246E0,-2.628921986E0,7.990083694E-1
7.418990680E-1,-2.433124065E0,-3.060349941E0,-9.515714645E-1
7.618019850E-1,-2.268905640E0,-3.261998177E0,-2.391404629E0
7.816907350E-1,-5.820665359E-1,-4.055491447E0,-4.394185066E0
8.015824540E-1,1.486393094E0,-5.301496029E0,-6.170593739E0
8.214505790E-1,3.424974442E0,-6.145081520E0,-6.794819832E0
8.413309950E-1,4.994376659E0,-6.426389694E0,-6.906530380E0
8.612274540E-1,6.080626011E0,-5.935691357E0,-7.218824387E0
8.811321930E-1,7.044030666E0,-4.761628151E0,-7.906854630E0
9.010228700E-1,7.820634842E0,-2.548259497E0,-8.779165268E0
9.209275060E-1,8.031316757E0,1.459414005E0,-9.451470375E0
9.408306830E-1,7.238536358E0,4.521362305E0,-9.721735001E0
9.607264640E-1,4.830139160E0,5.434648991E0,-9.430803299E0
9.805938600E-1,1.393052101E0,7.892786980E0,-1.053341293E1
1.000501308E0,-2.318941116E0,1.672358513E1,-1.363816643E1
1.020364797E0,-9.080532074E0,2.660501862E1,-1.781990814E1
1.040278860E0,-1.871377563E1,3.400505829E1,-1.862840843E1
1.060165110E0,-1.957216644E1,4.026675034E1,-1.801311111E1
1.080065943E0,-1.685073471E1,3.558309174E1,-2.773982430E1
1.099926412E0,-2.295902634E1,2.117340279E1,-3.742682266E1
1.119824745E0,-2.574569893E1,1.488581657E1,-3.536663055E1
1.139739485E0,-2.608513832E1,6.255677700E0,-3.958088303E1
1.159618235E0,-2.790822220E1,-5.936522007E0,-4.264847565E1
1.179523027E0,-2.830808258E1,-1.617224312E1,-3.942514420E1
1.199398287E0,-2.942180634E1,-2.486751175E1,-3.301807404E1
1.219285839E0,-2.462260056E1,-3.031163788E1,-2.556643295E1
1.239176204E0,-1.548809052E1,-3.334400940E1,-1.980257416E1
1.259078443E0,-6.841309071E0,-3.343384933E1,-1.671043205E1
1.278990474E0,-3.578151703E0,-2.908072281E1,-1.297102737E1
1.298904224E0,-2.584612608E0,-2.413167572E1,-1.042979431E1
1.318812870E0,-1.989242554E0,-2.060775757E1,-9.538103104E0
1.338637870E0,-8.205436468E-1,-1.623962784E1,-7.166954994E0
1.358542089E0,-5.616292953E-1,-1.193295479E1,-4.480267525E0
1.378460370E0,-1.681777358E0,-7.920652390E0,-2.674103737E0
1.398310474E0,-1.480289459E0,-3.759141207E0,-1.078945160E0
1.418223443E0,-1.257081509E0,-4.398965836E-1,5.122690201E-1
1.438116464E0,-2.418694019E0,1.768764973E0,2.697416306E0
1.458015735E0,-2.493652582E0,2.912097454E0,4.208075523E0
1.477906464E0,-1.596394658E0,3.128731251E0,4.813842773E0
1.497779849E0,-1.270908833E0,2.640088558E0,4.948964119E0
1.517692506E0,4.871822894E-1,2.186219692E0,3.471250057E0
1.537557454E0,2.555485249E0,1.814779282E0,2.513381958E0
1.557479902E0,2.186993122E0,9.056339264E-1,3.218441963E0
1.577372089E0,1.982161760E0,6.187725067E-1,2.729414940E0
1.597265110E0,1.934799910E0,2.581977844E-1,8.192443848E-1
1.617153599E0,1.212332368E0,6.765413284E-2,1.717967987E-1
1.637038860E0,1.147323608E0,3.797655106E-1,4.280090332E-3
1.656927245E0,1.316180825E0,7.550315857E-1,-2.377791405E-1
1.676849068E0,1.269634724E0,1.137565136E0,-3.782038689E-1
1.696745787E0,1.271081686E0,1.228405952E0,-7.032275200E-1
1.716573652E0,1.565325141E0,1.311206341E0,-1.207300186E0
1.736479172E0,1.934115648E0,1.400503159E0,-1.513832092E0
1.756394902E0,2.189600468E0,1.550874233E0,-1.550645351E0
1.776273860E0,2.272393703E0,1.624704361E0,-1.411533356E0
1.796152245E0,2.283545732E0,1.598832130E0,-1.360382080E0
1.816071620E0,2.270455837E0,1.360528469E0,-1.438041687E0
1.835961464E0,2.268815517E0,1.275413513E0,-1.521267414E0
1.855827558E0,2.231619120E0,1.385798454E0,-1.341211796E0
1.875781099E0,2.032196522E0,1.288529396E0,-1.034149647E0
1.895622402E0,1.826143265E0,1.066316605E0,-8.439989090E-1
1.915512818E0,1.628957629E0,8.652658463E-1,-7.848439217E-1
1.935406204E0,1.434368014E0,8.124060631E-1,-7.936911583E-1
1.955326047E0,1.235174656E0,7.830162048E-1,-6.606769562E-1
1.975201672E0,1.118613243E0,6.406531334E-1,-5.238242149E-1
1.995076568E0,8.582364917E-1,4.409298897E-1,-4.168963432E-1
2.014972037E0,5.809155107E-1,3.522815704E-1,-2.667775154E-1
2.034878547E0,3.837877512E-1,3.781428337E-1,-2.036247253E-1
2.054816152E0,1.181697845E-1,3.474850655E-1,-1.399397850E-1
2.074659224E0,-1.303808093E-1,2.252159119E-1,-4.768848419E-3
2.094533808E0,-3.622422218E-1,2.144484520E-1,4.633808136E-2
2.114422558E0,-4.711768031E-1,2.988634109E-1,1.579432487E-1
2.134306464E0,-5.944268107E-1,2.352080345E-1,3.453397751E-1
2.154231672E0,-5.632632971E-1,1.412801743E-1,3.690490723E-1
2.174102141E0,-4.120041132E-1,1.610202789E-1,3.030214310E-1
2.194013391E0,-2.636088729E-1,2.527294159E-1,3.346767426E-1
2.213888704E0,-3.123993874E-1,1.995129585E-1,3.445186615E-1
2.233785839E0,-5.327438116E-1,7.847070694E-2,2.564549446E-1
2.253666881E0,-6.109637022E-1,5.798482895E-2,2.549834251E-1
2.273585422E0,-7.046458721E-1,-7.671833038E-3,3.225250244E-1
2.293462402E0,-9.087231159E-1,-3.365993500E-2,3.412985802E-1
2.313337870E0,-8.714202642E-1,8.153915405E-4,3.288121223E-1
2.333228131E0,-7.239754200E-1,3.200960159E-2,2.867074013E-1
2.353145422E0,-7.236617804E-1,4.921913147E-3,3.405671120E-1
2.373045683E0,-9.322341681E-1,-8.057594299E-3,4.219470024E-1
2.392967558E0,-1.109099030E0,-8.840751648E-2,4.239306450E-1
2.412828027E0,-1.237238169E0,-3.064603806E-1,5.099577904E-1
2.432762141E0,-1.400419831E0,-5.330696106E-1,5.891828537E-1
2.452629172E0,-1.362183928E0,-7.775087357E-1,3.524379730E-1
2.472484224E0,-1.044617057E0,-9.261384010E-1,-3.627696037E-1
2.492402297E0,-7.856647968E-1,-1.108029366E0,-1.646337032E0
2.512288443E0,-5.482770205E-1,-1.583309174E0,-2.905052185E0
2.532190422E0,-3.822758198E-1,-2.361324787E0,-3.537471771E0
2.552069849E0,-9.416651726E-2,-3.182543993E0,-3.890181541E0
2.571979016E0,6.575353146E-1,-4.052855492E0,-4.338466644E0
2.591826412E0,1.571103454E0,-4.887938499E0,-4.807234287E0
2.611767870E0,2.712195396E0,-5.803235054E0,-5.187633991E0
2.631643547E0,3.769960165E0,-6.554739952E0,-5.496986389E0
2.651515370E0,4.592871189E0,-7.014455318E0,-5.514000893E0
2.671445683E0,5.658133030E0,-6.587913513E0,-5.435512543E0
2.691309277E0,6.799745083E0,-5.557391644E0,-5.350061417E0
2.711207089E0,7.344365120E0,-4.788056374E0,-5.564047337E0
2.731105735E0,7.351303101E0,-3.195129871E0,-5.294121265E0
2.750972610E0,6.604683399E0,1.784571648E0,-4.916591167E0
2.770877037E0,4.539713860E0,7.842041016E0,-6.899389267E0
2.790800995E0,-8.487195969E-1,1.677024269E1,-1.220287800E1
2.810698443E0,-1.111287594E1,3.086285210E1,-1.816880417E1
2.830540995E0,-1.788114166E1,4.722822571E1,-2.285576630E1
2.850459068E0,-1.292386627E1,5.562257767E1,-3.646991730E1
2.870324016E0,-1.376305008E1,4.955006027E1,-5.262206268E1
2.890243079E0,-2.266589355E1,2.219502640E1,-5.424926376E1
2.910139329E0,-2.126239395E1,7.305991173E0,-5.401221085E1
2.930019068E0,-2.224908257E1,-8.312755585E0,-5.674524307E1
2.949898287E0,-2.880036354E1,-2.442626572E1,-5.337553406E1
2.969785266E0,-3.494955063E1,-3.755741882E1,-4.410374832E1
2.989727870E0,-2.967819405E1,-4.038452911E1,-2.636195946E1
3.009569120E0,-2.129330635E1,-3.952225113E1,-1.671102905E1
3.029468183E0,-1.388026047E1,-3.746786499E1,-1.266572094E1
3.049378235E0,-8.115112305E0,-2.982261658E1,-8.434115410E0
3.069266672E0,-5.028936386E0,-2.421366119E1,-7.141572952E0
3.089167454E0,-3.264695168E0,-1.884077263E1,-6.390522003E0
3.109046047E0,-2.643425941E0,-1.367262459E1,-4.609941959E0
3.128963443E0,-2.152189016E0,-9.135671616E0,-3.262813807E0
3.148866933E0,-1.630330443E0,-4.198883057E0,-2.367419481E0
3.168772870E0,-4.966381788E-1,1.613140106E-3,-1.517143965E0
3.188626152E0,3.467025757E-1,2.736148834E0,-3.097634315E-1
3.208497037E0,-8.558328152E-1,3.976469040E0,1.177681446E0
3.228404016E0,-1.892251849E0,4.844440460E0,2.400592804E0
3.248307714E0,-1.972766757E0,5.223710060E0,2.996047020E0
3.268200631E0,-1.863951206E0,4.898173809E0,2.208390236E0
3.288053704E0,-1.070239425E0,4.023498058E0,1.671523571E0
3.307978547E0,5.225080848E-1,3.259341240E0,2.146059036E0
3.327872089E0,2.914588451E0,2.517530441E0,1.423257828E0
3.347768339E0,3.824555397E0,1.290116787E0,5.510802269E-1
3.367627402E0,3.135144711E0,1.345005035E-1,1.251160145E0
3.387525891E0,2.897893429E0,-4.481568336E-1,1.658035755E0
3.407447818E0,3.272331953E0,-6.847338676E-1,4.485602379E-1
3.427303495E0,2.887498617E0,-3.099193573E-1,-1.297870159E0
3.447226672E0,2.097533941E0,1.398191452E-1,-1.637250423E0
3.467102141E0,1.527960300E0,8.544411659E-1,-1.360029221E0
3.487016724E0,1.394062877E0,1.017655849E0,-1.277266026E0
3.506908860E0,1.428773880E0,7.420744896E-1,-1.420038700E0
3.526786620E0,1.316676617E0,9.512839317E-1,-1.563126564E0
3.546686152E0,1.441191554E0,1.184302807E0,-1.486330986E0
3.566556933E0,1.682558060E0,1.205292225E0,-1.463670731E0
3.586450943E0,1.851432323E0,1.343367100E0,-1.669939995E0
3.606363860E0,2.074811697E0,1.600582600E0,-1.809481144E0
3.626226099E0,2.367977142E0,1.730678558E0,-1.676157951E0
3.646126933E0,2.400123119E0,1.807994843E0,-1.337991238E0
3.666033547E0,2.303534031E0,1.803952694E0,-1.110570431E0
3.685909329E0,1.966408372E0,1.613571167E0,-1.159662247E0
3.705815214E0,1.561967492E0,1.239366531E0,-1.151813507E0
3.725774485E0,1.331483960E0,8.912315369E-1,-7.096819878E-1
3.745599068E0,1.073841691E0,5.553188324E-1,-1.449394226E-1
3.765471516E0,7.285290956E-1,3.406400681E-1,2.819681168E-2
3.785396777E0,4.675039649E-1,2.430500984E-1,-9.042358398E-2
3.805283027E0,1.426036954E-1,2.561354637E-1,-1.790323257E-1
3.825161464E0,4.460763931E-2,1.849274635E-1,-7.172822952E-2
3.845058599E0,-2.277469635E-2,-1.107311249E-2,-3.119325638E-2
3.864971724E0,-1.394891739E-1,1.217088699E-1,4.156875610E-2
3.884854381E0,-1.911146641E-1,4.433779716E-1,2.011365891E-1
3.904786829E0,-4.549949169E-1,4.799394608E-1,2.605710030E-1
3.924632922E0,-6.252228022E-1,3.126077652E-1,2.237739563E-1
3.944502141E0,-6.300133467E-1,1.763916016E-1,1.720004082E-1
3.964429277E0,-6.752965450E-1,3.182649612E-2,1.849393845E-1
3.984278704E0,-7.691365480E-1,-6.634712219E-3,3.062667847E-1
4.004200631E0,-7.202556133E-1,5.624103546E-2,4.479031563E-1
4.024099068E0,-6.746455431E-1,-6.752681732E-2,5.094256401E-1
4.043966204E0,-1.012635350E0,-2.996125221E-1,5.646467209E-1
4.063862037E0,-1.580871224E0,-3.753566742E-1,7.496805191E-1
4.083752037E0,-2.140784979E0,-2.955641747E-1,8.309369087E-1
4.103661777E0,-2.515266895E0,-1.369853020E-1,5.331645012E-1
4.123531152E0,-2.494050503E0,-8.814811707E-3,-1.397562027E-2
4.143435631E0,-2.128804922E0,-5.293321609E-2,-6.890864372E-1
4.163326777E0,-1.847618341E0,-3.064060211E-1,-9.624261856E-1
4.183212558E0,-2.080962181E0,-1.179404259E0,-9.921312332E-1
4.203088964E0,-2.374026537E0,-1.854709625E0,-1.387585640E0
4.223001777E0,-1.637679935E0,-2.020549774E0,-1.827202797E0
4.242893235E0,-6.182682514E-2,-2.086825371E0,-2.343242645E0
4.262808652E0,1.617470026E0,-2.690205574E0,-3.108930111E0
4.282665579E0,2.603299379E0,-3.755414963E0,-3.671507359E0
4.302568495E0,3.171734571E0,-4.825268745E0,-4.175869942E0
4.322461985E0,3.839584351E0,-5.842319965E0,-4.648645401E0
4.342348808E0,4.845812798E0,-6.174254417E0,-4.840934753E0
4.362235787E0,6.175968170E0,-5.963916302E0,-4.961965561E0
4.382136152E0,7.479821682E0,-5.669336796E0,-5.556369781E0
4.402023027E0,8.466781616E0,-4.492368698E0,-6.200276375E0
4.421941047E0,9.157468796E0,-2.805893898E0,-6.684439182E0
4.441809433E0,9.796477318E0,-1.221532583E0,-6.935811043E0
4.461752558E0,9.894008636E0,2.399481773E0,-7.220198631E0
4.481602349E0,8.569354057E0,1.069761086E1,-9.871849060E0
4.501484693E0,8.299379349E-1,1.578988457E1,-1.786735916E1
4.521392714E0,-1.421716309E1,2.504270363E1,-2.432667160E1
4.541271412E0,-1.400568008E1,4.467743683E1,-2.438397217E1
4.561149433E0,-1.065809822E1,3.969248962E1,-3.439696503E1
4.581051308E0,-1.592865944E1,2.995125771E1,-4.656015778E1
4.600971672E0,-1.031957340E1,2.348575974E1,-4.750390625E1
4.620868547E0,-1.401257706E1,9.161219597E0,-5.596968842E1
4.640760318E0,-1.909120941E1,-7.809842110E0,-5.667849350E1
4.660655891E0,-2.416173172E1,-1.935055733E1,-4.927286530E1
4.680515474E0,-3.298212051E1,-3.195369720E1,-4.145023727E1
4.700401724E0,-3.020491600E1,-3.846706390E1,-2.891079903E1
4.720307297E0,-1.934084892E1,-3.808332825E1,-1.827961922E1
4.740191152E0,-1.106161976E1,-3.755195999E1,-1.258008575E1
4.760106829E0,-6.113024712E0,-3.112057495E1,-8.386608124E0
4.779995839E0,-2.499647617E0,-2.604570389E1,-7.008559227E0
4.799875631E0,-1.107519150E0,-2.202027893E1,-6.211315632E0
4.819779068E0,-1.135969281E0,-1.689891434E1,-4.691647053E0
4.839662297E0,-1.835820436E0,-1.199865913E1,-3.182348967E0
4.859530266E0,-2.291896820E0,-7.744854927E0,-2.508372068E0
4.879465110E0,-1.623189926E0,-3.783308268E0,-2.198748827E0
4.899323704E0,-1.611096621E0,-7.110629082E-1,-1.416371822E0
4.919230214E0,-1.823678374E0,2.288912773E0,-9.335932732E-1
4.939133131E0,-3.043474555E-1,4.164680958E0,-1.848137617E0
4.959010579E0,1.125284314E0,4.874267578E0,-1.917184591E0
4.978932506E0,5.913117528E-1,5.064304352E0,7.256202698E-1
4.998829224E0,3.627419472E-1,5.255180359E0,1.908721447E0
5.018711568E0,2.837254763E0,4.482795715E0,-5.390510559E-1
5.038560579E0,4.807728291E0,3.419208527E0,-2.454445362E0
5.058477610E0,4.558167458E0,2.568896294E0,-4.832038879E-1
5.078380370E0,4.161904812E0,2.030784607E0,1.223378181E0
5.098249745E0,4.007719040E0,1.281799316E0,1.710977554E-1
5.118164485E0,3.516491175E0,3.144741058E-2,-1.734272957E0
5.138038183E0,2.673601627E0,-6.965517998E-1,-1.583161354E0
5.157917402E0,2.139065027E0,-5.931959152E-1,-3.440346718E-1
5.177823339E0,1.860624909E0,-4.451322556E-1,-2.309951782E-1
5.197725735E0,1.518680215E0,-2.813663483E-1,-9.687738419E-1
5.217618027E0,1.083078027E0,1.196269989E-1,-1.073528767E0
5.237513027E0,1.042186022E0,6.333093643E-1,-6.833209991E-1
5.257407193E0,1.241122723E0,1.205026627E0,-7.464718819E-1
5.277284589E0,1.339645863E0,1.762419701E0,-1.152697086E0
5.297192766E0,1.241986156E0,1.967278481E0,-1.120873213E0
5.317062818E0,1.128756762E0,1.976101875E0,-5.687289238E-1
5.336976152E0,1.469683647E0,1.813852310E0,-3.731708527E-1
5.356871516E0,1.700233340E0,1.630283356E0,-7.052402496E-1
5.376799954E0,1.756898642E0,1.446630478E0,-9.003081322E-1
5.396652610E0,1.735565305E0,1.453639030E0,-6.705722809E-1
5.416542141E0,1.662020683E0,1.338982582E0,-5.974617004E-1
5.436435787E0,1.532105446E0,1.171881676E0,-7.655210495E-1
5.456312506E0,1.167922378E0,1.136310577E0,-8.160648346E-1
5.476208287E0,6.039347649E-1,1.244229317E0,-6.426098347E-1
5.496089016E0,4.132089615E-1,1.170743942E0,-4.467959404E-1
5.515972349E0,3.994309902E-1,9.182195663E-1,-4.227771759E-1
5.535880943E0,3.278026581E-1,7.138757706E-1,-2.957177162E-1
5.555817766E0,2.253224850E-1,6.815357208E-1,-1.419334412E-1
5.575708808E0,1.514508724E-1,5.541477203E-1,-2.682175636E-1
5.595547974E0,1.863262653E-1,2.814559937E-1,-2.468438148E-1
5.615433027E0,6.622481346E-2,6.470012665E-2,6.341457367E-3
5.635337974E0,-1.317200661E-1,5.561065674E-2,1.029996872E-1
5.655240318E0,-1.892709732E-1,2.399740219E-1,-1.338558197E-1
5.675137297E0,-1.201148033E-1,2.471494675E-1,-4.233546257E-1
5.695036464E0,-7.815766335E-2,2.205486298E-1,-3.879623413E-1
5.714904954E0,-2.627367973E-1,2.041740417E-1,-5.607700348E-2
5.734826829E0,-4.887356758E-1,2.556667328E-1,1.915297508E-1
5.754762506E0,-5.669746399E-1,1.613845825E-1,2.794790268E-2
5.774578808E0,-3.666198254E-1,-6.019592285E-3,-1.652479172E-2
5.794491881E0,-3.247122765E-1,-1.912879944E-1,2.128605843E-1
5.814392714E0,-4.170329571E-1,-3.054056168E-1,4.483165741E-1
5.834282714E0,-5.311551094E-1,-3.405528069E-1,4.709334373E-1
5.854164224E0,-7.178976536E-1,-3.881115913E-1,3.439116478E-1
5.874047506E0,-9.244539738E-1,-4.298987389E-1,2.473526001E-1
5.893932349E0,-1.100779295E0,-4.126548767E-1,2.874350548E-1
5.913828860E0,-1.064025640E0,-3.598308563E-1,4.326848984E-1
5.933724068E0,-9.706866741E-1,-1.992006302E-1,6.016411781E-1
5.953602766E0,-1.103940725E0,-1.480884552E-1,7.355623245E-1
5.973497349E0,-1.288992405E0,-1.474990845E-1,6.819314957E-1
5.993397714E0,-1.145910740E0,-4.766178131E-2,4.182500839E-1
6.013275579E0,-8.445484638E-1,1.671800613E-1,1.232938766E-1
6.033187297E0,-3.107097149E-1,3.186159134E-1,-3.279061317E-1
6.053064849E0,4.032456875E-1,4.592523575E-1,-6.173715591E-1
6.072974120E0,1.020396471E0,1.215904236E0,-4.886851311E-1
6.092860735E0,1.287599325E0,1.750351906E0,-6.375966072E-1
6.112772714E0,7.471532822E-1,8.387689590E-1,-1.350625515E0
6.132618183E0,6.004672050E-1,-3.209595680E-1,-1.974076271E0
6.152519224E0,1.228002071E0,-1.330242157E0,-2.620349407E0
6.172438287E0,1.866178155E0,-2.137544632E0,-3.236568928E0
6.192331047E0,2.008576393E0,-2.492446423E0,-3.658899307E0
6.212210318E0,2.209320784E0,-2.656127930E0,-3.891241074E0
6.232079016E0,2.781574965E0,-2.777940273E0,-3.827607155E0
6.251988756E0,3.350235224E0,-3.112049103E0,-3.331631899E0
6.271861516E0,3.516603231E0,-3.588957548E0,-2.558950663E0
6.291786881E0,3.722150087E0,-4.422773361E0,-2.407188892E0
6.311654641E0,4.263296604E0,-5.063870907E0,-2.711374760E0
6.331560006E0,4.966057301E0,-5.185514927E0,-2.560861349E0
6.351454172E0,5.686357975E0,-5.046358585E0,-1.993381739E0
6.371380579E0,6.552581310E0,-4.868862629E0,-1.715499401E0
6.391240943E0,8.126775742E0,-3.650331974E0,-2.001551151E0
6.411144068E0,9.717649460E0,-1.408101559E0,-2.810413599E0
6.431020683E0,1.069065666E1,3.688820362E0,-4.668497562E0
6.450928131E0,9.376514435E0,1.378396797E1,-9.933271408E0
6.470797193E0,1.682889938E0,2.115050316E1,-1.764865112E1
6.490700006E0,-3.399312973E0,3.552581787E1,-2.010059166E1
6.510591620E0,-2.358124733E0,4.765910721E1,-2.428698349E1
6.530494797E0,-1.021118546E1,3.739061356E1,-4.024308777E1
6.550375370E0,-6.613068581E0,2.457236290E1,-4.426889038E1
6.570280006E0,2.188534737E0,1.601734161E1,-5.274307251E1
6.590201360E0,-3.321527481E0,-3.000573158E0,-6.818286133E1
6.610036152E0,-8.512278557E0,-1.652460861E1,-6.550829315E1
6.629964797E0,-1.521475220E1,-2.940547562E1,-5.132427216E1
6.649855631E0,-1.733835030E1,-3.768046570E1,-3.386333847E1
6.669764381E0,-1.472774506E1,-4.085458755E1,-2.113411522E1
6.689637818E0,-1.218180561E1,-3.971477127E1,-1.448934364E1
6.709533131E0,-9.145698547E0,-3.185838890E1,-1.003766441E1
6.729407454E0,-4.159372807E0,-2.595588684E1,-8.056261063E0
6.749329537E0,-2.688088417E-1,-2.257028580E1,-8.036912918E0
6.769193964E0,1.187271476E0,-1.860519409E1,-6.460767269E0
6.789084277E0,1.080072999E0,-1.475305367E1,-4.403801441E0
6.808989433E0,7.244474888E-1,-1.117906570E1,-3.365003109E0
6.828876256E0,5.117753744E-1,-7.813288212E0,-2.821107864E0
6.848823339E0,2.224392891E-1,-4.976279736E0,-1.895744801E0
6.868662089E0,-4.433658123E-1,-2.509046555E0,-8.120613098E-1
6.888529224E0,-1.297151327E0,8.542919159E-2,-5.133342743E-2
6.908436568E0,-1.745575786E0,2.238382816E0,2.429637909E-1
6.928341152E0,-8.859102726E-1,3.581817627E0,2.989964485E-1
6.948223599E0,9.124413133E-1,4.126485348E0,2.990970612E-1
6.968126777E0,1.680713892E0,3.931618690E0,1.082032681E0
6.988008339E0,1.266920567E0,4.188812733E0,1.560851097E0
7.007888912E0,3.208642006E0,3.881791115E0,-2.614212036E-2
7.027799797E0,4.654448986E0,3.161223412E0,-1.514995575E0
7.047708495E0,3.498717308E0,2.322354794E0,3.599390984E-1
7.067582870E0,2.142898321E0,2.337254047E0,2.379185677E0
7.087468183E0,2.392141342E0,1.822294712E0,8.581953049E-1
7.107345162E0,2.702363253E0,9.235773087E-1,-2.156851053E0
7.127255214E0,1.997615099E0,8.395347595E-1,-2.341524124E0
7.147143756E0,1.259952784E0,1.479086876E0,-5.795421600E-1
7.167038964E0,1.102091432E0,1.677767754E0,2.542128563E-1
7.186943027E0,1.180533171E0,1.403990746E0,-2.454500198E-1
7.206868079E0,1.101924181E0,1.063720703E0,-6.369900703E-1
7.226746933E0,1.180181265E0,1.374263763E0,-5.392403603E-1
7.246620318E0,1.565217733E0,1.877102375E0,-5.869896412E-1
7.266514693E0,1.779428363E0,2.291019440E0,-5.175187588E-1
7.286415370E0,1.758908510E0,2.243325233E0,4.682350159E-2
7.306283652E0,1.686342239E0,1.863235950E0,-4.407310486E-2
7.326176881E0,1.752813101E0,1.635478020E0,-6.965279579E-1
7.346066568E0,1.639955759E0,1.668676376E0,-1.177343130E0
7.365951829E0,1.428506851E0,1.621814728E0,-1.009256840E0
7.385852297E0,1.391012430E0,1.577162743E0,-3.515110016E-1
7.405799433E0,1.455348015E0,1.531943798E0,-1.425728798E-1
7.425723756E0,1.350974798E0,1.568230629E0,-5.558130741E-1
7.445509693E0,1.169147968E0,1.310174465E0,-8.614928722E-1
7.465444277E0,9.709246159E-1,8.374347687E-1,-5.724122524E-1
7.485284381E0,7.451374531E-1,3.765540123E-1,-1.506567001E-1
7.505202610E0,7.000813484E-1,3.011302948E-1,-9.648323059E-2
7.525101360E0,5.211975574E-1,5.088062286E-1,-4.526138306E-1
7.545016204E0,3.021662235E-1,5.927219391E-1,-7.830545902E-1
7.564903339E0,1.829862595E-1,4.738302231E-1,-7.892158031E-1
7.584783131E0,1.848199368E-1,3.102388382E-1,-6.803255081E-1
7.604688860E0,2.159790993E-1,4.057044983E-1,-5.551447868E-1
7.624556724E0,3.842360973E-1,3.865170479E-1,-4.384298325E-1
7.644460631E0,4.209146500E-1,3.281331062E-1,-2.245535851E-1
7.664344849E0,3.711316586E-1,2.987565994E-1,-2.039103508E-1
7.684240527E0,1.607999802E-1,4.217658043E-1,-2.022728920E-1
7.704151204E0,2.618622780E-2,4.269714355E-1,-1.152706146E-1
7.724026464E0,7.932615280E-2,3.068027496E-1,-1.159830093E-1
7.743926464E0,3.552150726E-2,1.669130325E-1,-1.501665115E-1
7.763817922E0,-6.895399094E-2,1.039714813E-1,-1.949820518E-1
7.783702037E0,-2.154283524E-1,1.661777496E-1,-3.289752007E-1
7.803586464E0,-3.383636475E-1,2.006459236E-1,-2.551522255E-1
7.823463912E0,-3.435094357E-1,1.280751228E-1,-3.946447372E-2
7.843380318E0,-3.055036068E-1,-5.002880096E-2,5.618429184E-2
7.863245787E0,-3.431053162E-1,-1.353411674E-1,-8.690357208E-3
7.883173391E0,-3.420114517E-1,-7.890653610E-2,-3.937578201E-2
7.903052402E0,-3.646445274E-1,-2.197647095E-2,2.678871155E-2
7.922944068E0,-4.541218281E-1,-1.181430817E-1,1.496200562E-1
7.942841464E0,-7.453813553E-1,-1.832680702E-1,3.138904572E-1
7.962770839E0,-1.059102297E0,-8.918285370E-2,3.364191055E-1
7.982633027E0,-1.275988340E0,3.255987167E-2,2.579970360E-1
8.002493287E0,-1.231732130E0,1.470999718E-1,2.903566360E-1
8.022403495E0,-1.075622797E0,2.321524620E-1,6.072936058E-1
8.042288704E0,-1.200085878E0,2.462940216E-1,8.493700027E-1
8.062179120E0,-1.306644440E0,2.424902916E-1,7.622532845E-1
8.082065474E0,-7.099747658E-1,1.889958382E-1,6.084027290E-1
8.101951464E0,-8.403062820E-2,-2.639513016E-1,1.306152344E-1
8.121867610E0,4.307732582E-1,-2.150397301E-1,-5.110502243E-1
8.141753860E0,6.883289814E-1,-3.421444893E-1,-1.319228172E0
8.161626881E0,6.730563641E-1,-9.505228996E-1,-1.766304493E0
8.181529277E0,8.862690926E-1,-1.677970886E0,-1.672670841E0
8.201420422E0,1.442453384E0,-2.675553799E0,-2.329883814E0
8.221333599E0,2.422638416E0,-3.771306276E0,-3.201624393E0
8.241181933E0,3.275001049E0,-4.636663914E0,-3.621427774E0
8.261108547E0,4.051572323E0,-5.361151218E0,-3.853830576E0
8.280998547E0,5.136162758E0,-5.860661983E0,-4.042276382E0
8.300865214E0,6.051359653E0,-6.143635273E0,-4.296911716E0
8.320797818E0,6.569499016E0,-6.095004082E0,-4.600103855E0
8.340694589E0,7.017479897E0,-5.223148346E0,-4.889095783E0
8.360558443E0,7.628081799E0,-3.758609533E0,-5.338240623E0
8.380474745E0,8.586447716E0,-2.788804531E0,-5.656370163E0
8.400369693E0,9.376671791E0,-2.649518967E0,-5.997353554E0
8.420231204E0,8.840007782E0,-1.581624031E0,-6.821423531E0
8.440144068E0,8.262864113E0,4.577889442E0,-9.039831161E0
8.460015162E0,8.001178741E0,1.309986019E1,-1.292729473E1
8.479928131E0,5.973896027E0,1.905861092E1,-1.999330139E1
8.499808964E0,6.027287483E0,3.436563873E1,-3.562178040E1
8.519712922E0,8.870039940E0,4.345693970E1,-4.858887482E1
8.539597193E0,3.961428642E0,2.686913300E1,-4.735245514E1
8.559498964E0,-4.214485168E0,1.860769844E1,-3.808290863E1
8.579381881E0,-1.859558821E0,1.341685867E1,-4.693495941E1
8.599277402E0,2.316373825E0,3.973331451E-1,-5.579212952E1
8.619179172E0,-1.461582661E0,-1.745524597E1,-5.136774063E1
8.639061777E0,-1.171385956E1,-3.191980743E1,-4.520564270E1
8.658973808E0,-1.662716293E1,-3.715941238E1,-3.285412216E1
8.678881516E0,-1.599809361E1,-3.634286499E1,-1.967255211E1
8.698789537E0,-1.103403282E1,-3.623136902E1,-1.552973652E1
8.718618287E0,-5.206098557E0,-3.331516266E1,-1.209981918E1
8.738510474E0,-1.456678987E0,-2.682883835E1,-8.446161270E0
8.758436047E0,4.199559093E-1,-2.256148148E1,-6.821912766E0
8.778295891E0,5.513245463E-1,-1.888647079E1,-6.039708138E0
8.798194016E0,-1.809049845E-1,-1.463453293E1,-4.574658871E0
8.818076308E0,-1.577201366E0,-1.052026367E1,-2.938006878E0
8.837999277E0,-1.678257823E0,-7.400014877E0,-2.210293055E0
8.857866047E0,-3.144144416E-1,-4.407093525E0,-2.260827780E0
8.877775527E0,4.818769693E-1,-1.804059982E0,-1.822914124E0
8.897646360E0,-1.613556147E-1,3.524417877E-1,-6.796770096E-1
8.917540891E0,-5.823185444E-1,2.364708900E0,8.025169373E-4
8.937457922E0,1.791834831E-2,3.890269279E0,1.470179558E-1
8.957345943E0,1.237348199E0,4.853648186E0,4.809956551E-1
8.977216672E0,2.241945744E0,4.951539040E0,1.777644157E0
8.997098183E0,3.503268242E0,4.878738403E0,1.989109993E0
9.017021985E0,5.482690334E0,4.241700172E0,1.050968170E-1
9.036931620E0,6.200476646E0,2.865611076E0,-7.730150223E-1
9.056795058E0,4.970656395E0,1.989328384E0,1.570586681E0
9.076688131E0,3.731651783E0,1.134957314E0,3.238417625E0
9.096573599E0,2.883727551E0,4.102334976E-1,1.607389450E0
9.116478964E0,2.108345032E0,-1.691675186E-1,-8.334317207E-1
9.136368964E0,7.423613071E-1,-8.567237854E-2,-1.605881453E0
9.156246047E0,1.356309652E-1,6.537799835E-1,-1.601780653E0
9.176148339E0,5.896356106E-1,1.240608215E0,-1.650214195E0
9.196020162E0,1.113014698E0,1.223231316E0,-1.772374153E0
9.215937402E0,1.290674210E0,8.843154907E-1,-1.606292009E0
9.235829849E0,1.455410480E0,9.194874763E-1,-1.465486050E0
9.255803235E0,1.733672738E0,1.147699356E0,-1.669414520E0
9.275617818E0,2.105721951E0,1.275717735E0,-1.923092842E0
9.295512870E0,2.062956333E0,1.214540482E0,-1.561847210E0
9.315414068E0,1.924982190E0,1.189778328E0,-1.243881702E0
9.335303443E0,1.925836325E0,1.425299644E0,-1.283337593E0
9.355158027E0,1.930417538E0,1.570223808E0,-1.388961315E0
9.375072558E0,1.922595978E0,1.452199936E0,-1.259350777E0
9.394976933E0,1.716155291E0,1.285331726E0,-1.045419216E0
9.414886464E0,1.498659492E0,1.177115440E0,-8.653593063E-1
9.434771985E0,1.479298592E0,9.775557518E-1,-8.788886070E-1
9.454715891E0,1.587947607E0,7.177476883E-1,-9.177427292E-1
9.474538287E0,1.412490726E0,5.676975250E-1,-8.533983231E-1
9.494439849E0,1.176515579E0,5.913081169E-1,-7.511348724E-1
9.514326672E0,6.666458845E-1,8.534793854E-1,-6.335268021E-1
9.534190214E0,3.172698021E-1,9.509682655E-1,-5.692028999E-1
9.554115214E0,2.109258175E-1,7.995901108E-1,-4.310274124E-1
9.573972349E0,1.726510525E-1,7.029190063E-1,-3.555788994E-1
9.593887922E0,2.882745266E-1,7.456851006E-1,-3.963041306E-1
9.613777558E0,2.817020416E-1,7.877469063E-1,-3.812890053E-1
9.633675214E0,-8.550691605E-2,5.993666649E-1,1.841449738E-2
9.653552766E0,-4.229378700E-1,4.543685913E-1,3.093943596E-1
9.673465318E0,-5.055539608E-1,4.082283974E-1,2.221279144E-1
9.693333808E0,-5.400545597E-1,3.585190773E-1,7.387256622E-2
9.713253027E0,-6.583023071E-1,3.983879089E-1,7.958078384E-2
9.733132193E0,-5.582740307E-1,3.320875168E-1,1.946897507E-1
9.753011568E0,-4.840040207E-1,2.122631073E-1,1.728701591E-1
9.772920735E0,-3.858363628E-1,2.068986893E-1,3.026485443E-2
9.792815214E0,-2.706453800E-1,2.188792229E-1,-8.599615097E-2
9.812747349E0,-2.281262875E-1,1.714720726E-1,-1.675877571E-1
9.832595266E0,-1.136119366E-1,1.044688225E-1,-9.344148636E-2
9.852466724E0,-3.549933434E-2,6.154775620E-2,3.766489029E-2
9.872387193E0,-9.154915810E-2,2.860212326E-2,5.829763412E-2
9.892282193E0,-2.843925953E-1,9.828424454E-2,1.124086380E-1
9.912161308E0,-5.209548473E-1,2.250256538E-1,3.315725327E-1
9.932043808E0,-8.288297653E-1,2.221665382E-1,4.137163162E-1
9.951917870E0,-1.097875595E0,1.348409653E-1,3.601531982E-1
9.971832714E0,-1.370761395E0,4.393863678E-2,4.815664291E-1
9.991729068E0,-1.761003733E0,8.725214005E-2,8.652873039E-1
1.001160318E1,-2.080596685E0,6.008577347E-2,9.983010292E-1
1.003152084E1,-2.088589191E0,-1.869015694E-1,6.138005257E-1
1.005142521E1,-2.339800596E0,-5.192198753E-1,3.184337616E-1
1.007128428E1,-2.680612803E0,-5.029773712E-1,2.843322754E-1
1.009119448E1,-2.597691536E0,-1.798639297E-1,2.204952240E-1
1.011106506E1,-1.899793625E0,4.614119530E-1,-3.441429138E-1
1.013097813E1,-5.108177662E-1,7.738771439E-1,-1.648945332E0
1.015087021E1,1.025861025E0,2.856292725E-1,-3.278865814E0
1.017076152E1,2.110363245E0,-7.025942802E-1,-4.587833405E0
1.019065438E1,2.734992504E0,-1.703939676E0,-5.363855839E0
1.021053376E1,3.175375938E0,-2.642349958E0,-5.771899223E0
1.023042542E1,3.826137066E0,-3.310728788E0,-5.998193264E0
1.025032896E1,4.628414154E0,-3.649504423E0,-6.405068874E0
1.027020433E1,5.584808350E0,-4.015050411E0,-7.116639137E0
1.029010131E1,6.794323444E0,-4.559968472E0,-8.629150391E0
1.030997678E1,8.616898537E0,-4.242494106E0,-1.131827450E1
1.032990094E1,1.063405418E1,-2.459849834E0,-1.468815899E1
1.034979136E1,1.098791504E1,-2.786021233E-1,-1.622288895E1
1.036970527E1,1.069079685E1,2.714105129E0,-1.484504128E1
1.038958063E1,1.061931038E1,5.558025837E0,-1.123340130E1
1.040945756E1,9.135568619E0,9.939100266E0,-8.695141792E0
1.042934672E1,2.448794842E0,1.834052086E1,-1.904492569E1
1.044924449E1,-1.215493965E1,2.379851723E1,-3.244285965E1
1.046913980E1,-1.904869461E1,3.403893280E1,-2.456619263E1
1.048903490E1,-1.960646820E1,3.745491409E1,-2.345135880E1
1.050895745E1,-8.979882240E0,3.098353577E1,-4.284313965E1
1.052885688E1,-7.266102791E0,2.271999550E1,-5.188162613E1
1.054874433E1,-1.558659363E1,1.418732548E1,-5.143479919E1
1.056858042E1,-1.807577133E1,-2.148389816E-1,-6.114833832E1
1.058850730E1,-2.118200111E1,-1.623358345E1,-6.436402893E1
1.060839829E1,-2.022292137E1,-3.264240646E1,-5.238543320E1
1.062826902E1,-1.511074352E1,-3.684133911E1,-3.210100555E1
1.064815735E1,-1.036488628E1,-3.797867584E1,-2.338472176E1
1.066806021E1,-3.938100338E0,-3.964594269E1,-1.543937492E1
1.068793381E1,-2.561541319E0,-3.315718842E1,-8.728011131E0
1.070784021E1,-1.938935518E0,-2.674901009E1,-6.659877777E0
1.072775485E1,-7.747970819E-1,-2.227072906E1,-6.619935513E0
1.074766443E1,-7.005579472E-1,-1.686473274E1,-5.695765972E0
1.076750818E1,-2.775755167E0,-1.216746521E1,-3.070056200E0
1.078743376E1,-4.877084732E0,-8.318346977E0,-1.489739656E0
1.080728006E1,-4.033764839E0,-4.445503712E0,-1.335022449E0
1.082718417E1,-3.191518784E0,-1.587388039E0,7.369327545E-2
1.084707589E1,-4.778609276E0,1.755169868E0,1.615753174E0
1.086698271E1,-4.519595146E0,4.550914764E0,2.037831783E0
1.088695193E1,-2.801180840E0,5.220553398E0,2.735334396E0
1.090679412E1,-3.592655182E0,4.801107407E0,4.436576366E0
1.092664006E1,-3.028534889E0,4.895672798E0,3.243414402E0
1.094653657E1,2.660361528E-1,4.610938072E0,2.535853386E-1
1.096643652E1,2.641120195E0,4.476739883E0,7.327556610E-2
1.098631266E1,2.236363888E0,4.039991856E0,1.581244469E0
1.100622824E1,2.371002197E0,3.109357357E0,1.273927689E0
1.102611131E1,2.935484886E0,1.988786221E0,1.478505135E-1
1.104601688E1,2.258214712E0,1.318103790E0,-5.037498474E-2
1.106589146E1,1.483101249E0,9.035739899E-1,-5.607194901E-1
1.108578193E1,1.706548095E0,5.245871544E-1,-1.928894520E0
1.110574313E1,1.999995232E0,7.112956047E-1,-3.180541754E0
1.112556344E1,2.091385365E0,1.406272888E0,-3.366528034E0
1.114548396E1,1.666614413E0,1.702023983E0,-2.570051670E0
1.116537834E1,1.162154317E0,1.459436417E0,-1.753376961E0
1.118525074E1,1.136572480E0,1.407541752E0,-1.663354397E0
1.120513547E1,1.213740349E0,1.361168861E0,-2.001823902E0
1.122507251E1,1.271299720E0,1.673805714E0,-1.942152977E0
1.124493782E1,1.689737797E0,2.335884094E0,-1.523106575E0
1.126485584E1,1.932794809E0,2.534335136E0,-1.101274967E0
1.128475001E1,1.990068793E0,2.210222721E0,-1.022107124E0
1.130461667E1,1.967695475E0,2.011271000E0,-9.488248825E-1
1.132449021E1,1.867544532E0,2.245821953E0,-5.984077454E-1
1.134437808E1,1.621766329E0,2.224396229E0,-3.587689400E-1
1.136428277E1,1.246203780E0,1.543923855E0,-4.183540344E-1
1.138416183E1,8.998869658E-1,9.708766937E-1,-4.686360359E-1
1.140407980E1,6.753510237E-1,6.577820778E-1,-4.926381111E-1
1.142397032E1,5.225771666E-1,4.102530479E-1,-5.791659355E-1
1.144386011E1,6.149473190E-1,1.600422859E-1,-7.871489525E-1
1.146376850E1,8.077543974E-1,8.060455322E-3,-9.851284027E-1
1.148364469E1,1.167208433E0,-2.062783241E-1,-1.071855068E0
1.150354626E1,1.289181948E0,-2.247772217E-1,-9.845848083E-1
1.152343990E1,1.017832160E0,3.491401672E-3,-8.870124817E-1
1.154332449E1,7.760497332E-1,3.930568695E-2,-8.094511032E-1
1.156320636E1,5.966548920E-1,-3.235006332E-2,-7.660789490E-1
1.158311751E1,4.166893959E-1,8.382654190E-2,-6.559138298E-1
1.160300402E1,3.190776110E-1,4.422779083E-1,-4.891104698E-1
1.162290636E1,2.466497421E-1,7.468857765E-1,-3.233990669E-1
1.164279449E1,-2.806138992E-2,6.185989380E-1,-2.337651253E-1
1.166269105E1,-1.073007584E-1,4.090180397E-1,-2.484774590E-1
1.168254079E1,-2.530577183E-1,3.205461502E-1,-2.762951851E-1
1.170244245E1,-2.155935764E-1,3.756937981E-1,-2.472248077E-1
1.172236605E1,-1.368665695E-2,4.002943039E-1,-1.927900314E-1
1.174225136E1,1.908097267E-1,3.526930809E-1,-1.498532295E-1
1.176215001E1,2.493937016E-1,3.428258896E-1,-2.473731041E-1
1.178201131E1,1.218545437E-1,3.544106483E-1,-4.139328003E-1
1.180193365E1,2.429580688E-2,3.689885139E-1,-4.264240265E-1
1.182183146E1,-7.067203522E-3,4.025921822E-1,-2.893743515E-1
1.184171074E1,5.366468430E-2,4.884080887E-1,-1.324067116E-1
1.186159422E1,2.587985992E-2,4.718503952E-1,-2.102994919E-2
1.188148735E1,-1.161825657E-1,4.319419861E-1,5.261039734E-2
1.190138605E1,-2.877397537E-1,3.397245407E-1,7.151317596E-2
1.192125485E1,-3.471033573E-1,2.410740852E-1,-3.255081177E-2
1.194115334E1,-3.701939583E-1,2.256617546E-1,-5.135154724E-2
1.196105261E1,-3.983352184E-1,3.363475800E-1,1.345982552E-1
1.198095844E1,-4.707520008E-1,3.125619888E-1,1.234264374E-1
1.200083240E1,-5.816729069E-1,2.739973068E-1,-2.235832214E-1
1.202074001E1,-4.684541225E-1,5.721545219E-1,-9.712934494E-1
1.204063376E1,9.088373184E-2,5.148043633E-1,-1.625393391E0
1.206050876E1,2.266559601E-1,-9.741640091E-2,-1.493821621E0
1.208042214E1,-8.845329285E-1,-1.275809765E0,-1.116013527E0
1.210030074E1,-1.818104267E0,-2.590286255E0,-5.937218666E-1
1.212016876E1,-1.309134722E0,-2.804027081E0,-7.301006317E-1
1.214008501E1,-2.120623589E-1,-3.073614597E0,-1.219685555E0
1.215997834E1,8.179469109E-1,-3.799037457E0,-1.585732937E0
1.217984933E1,1.904178143E0,-4.375380039E0,-2.221189022E0
1.219974860E1,3.051667690E0,-4.834244728E0,-2.872144461E0
1.221963042E1,4.079886436E0,-4.566608906E0,-3.077254057E0
1.223951974E1,5.225904465E0,-3.297026634E0,-3.368715048E0
1.225941813E1,6.568978786E0,-1.599166870E0,-4.066095352E0
1.227931771E1,7.754419327E0,-1.025952578E0,-4.807454109E0
1.229921782E1,8.512279510E0,-1.757941723E0,-5.239143372E0
1.231908600E1,9.501442909E0,-1.025331497E0,-5.478274345E0
1.233899251E1,1.015931892E1,6.262660027E-1,-6.035585403E0
1.235889542E1,1.008330536E1,9.741368294E-1,-7.105330467E0
1.237880297E1,8.709203720E0,2.154626608E0,-8.526563644E0
1.239865985E1,5.173395157E0,8.696006775E0,-1.105853176E1
1.241856709E1,-7.268600464E-1,1.639954758E1,-1.645748901E1
1.243845068E1,-8.791508675E-1,2.836011124E1,-2.666421509E1
1.245836313E1,6.924779415E0,4.079075241E1,-3.612286758E1
1.247825209E1,-2.928322792E0,2.918288994E1,-4.594607162E1
1.249813860E1,-2.230632019E1,1.508680916E1,-5.528356171E1
1.251803636E1,-2.563977432E1,9.669565201E0,-6.164487076E1
1.253792751E1,-2.977598763E1,-6.478137970E0,-6.199898148E1
1.255781959E1,-3.582993698E1,-1.986344528E1,-4.886294174E1
1.257774240E1,-3.827581024E1,-3.220925903E1,-3.534962845E1
1.259761719E1,-3.138529205E1,-4.716550064E1,-2.722288895E1
1.261748527E1,-1.927743149E1,-4.877407074E1,-1.788965988E1
1.263741469E1,-1.121435547E1,-4.606524658E1,-1.076422691E1
1.265728636E1,-7.127748013E0,-3.960633087E1,-7.429556370E0
1.267717667E1,-3.808922291E0,-3.260686874E1,-6.072195053E0
1.269707813E1,-8.855777979E-1,-2.670096970E1,-4.789525986E0
1.271697615E1,3.066366911E-1,-2.130524445E1,-3.717764378E0
1.273683339E1,6.076787710E-1,-1.609807968E1,-2.665273666E0
1.275676626E1,-6.534126997E-1,-1.123545933E1,-8.765792847E-1
1.277665136E1,-1.645010829E0,-6.762879372E0,3.380694389E-1
1.279651235E1,-1.208692074E0,-3.229521751E0,6.243228912E-1
1.281641652E1,-1.402023435E0,-1.199359894E-1,1.264945984E0
1.283629724E1,-1.681526899E0,2.525357246E0,1.924746990E0
1.285620412E1,-1.519187570E0,4.115074158E0,2.435525894E0
1.287608850E1,-1.171570301E0,4.605874062E0,2.329213619E0
1.289598896E1,-1.992413700E-1,4.459069252E0,8.612332344E-1
1.291588146E1,1.997395992E0,3.766493797E0,-1.141827583E0
1.293581558E1,4.561078072E0,3.742951393E0,-1.820727587E0
1.295566808E1,6.043830395E0,3.874674797E0,-1.427459478E0
1.297555172E1,5.829765797E0,2.936987877E0,-1.198644400E0
1.299546532E1,4.634533882E0,1.586802483E0,-3.701720238E-1
1.301534172E1,3.069694996E0,1.240619659E0,-2.835474014E-1
1.303522985E1,2.622610092E0,6.894712448E-1,-1.793750048E0
1.305512235E1,2.712603807E0,3.334140778E-2,-2.810277462E0
1.307500745E1,1.529206991E0,-3.149175644E-1,-1.782404661E0
1.309491068E1,1.813391745E-1,2.868518829E-1,-8.178181648E-1
1.311483589E1,1.112088561E-2,8.873720169E-1,-1.032244205E0
1.313472641E1,2.788024545E-1,8.712530136E-1,-1.796531439E0
1.315461402E1,4.822801948E-1,6.396179199E-1,-1.767428637E0
1.317448162E1,1.891109943E-1,8.645858765E-1,-1.486332178E0
1.319438407E1,4.702637196E-1,1.309326172E0,-1.665801287E0
1.321427521E1,9.994087815E-1,1.365272522E0,-2.127655745E0
1.323414975E1,1.452482462E0,1.195267200E0,-1.986795187E0
1.325404261E1,1.420914054E0,1.075439930E0,-1.165530205E0
1.327393063E1,1.516966343E0,1.192524433E0,-9.713110924E-1
1.329382277E1,1.707436681E0,1.258905411E0,-1.632979870E0
1.331375527E1,1.766594768E0,1.194185257E0,-1.721761703E0
1.333360370E1,1.420535564E0,1.027359486E0,-8.372149467E-1
1.335352198E1,9.752405286E-1,1.015670300E0,-4.822201729E-1
1.337339745E1,9.801476002E-1,1.039670467E0,-9.652190208E-1
1.339328251E1,1.113225937E0,9.516520500E-1,-1.245595932E0
1.341316464E1,8.258833885E-1,8.932685852E-1,-7.424950600E-1
1.343305350E1,6.434137821E-1,8.648505211E-1,-3.799657822E-1
1.345297636E1,7.022378445E-1,8.772015572E-1,-4.363932610E-1
1.347288370E1,7.043761015E-1,9.885725975E-1,-4.877638817E-1
1.349280047E1,5.632805824E-1,9.298639297E-1,-4.256577492E-1
1.351271344E1,3.927279711E-1,7.516322136E-1,-2.875318527E-1
1.353254100E1,2.008814812E-1,6.488471031E-1,-2.919850349E-1
1.355244037E1,5.404901505E-2,7.815608978E-1,-4.411773682E-1
1.357232068E1,3.725147247E-2,7.785720825E-1,-4.196333885E-1
1.359223803E1,-1.779880524E-1,5.739169121E-1,-2.679147720E-1
1.361211370E1,-2.790422440E-1,4.374547005E-1,-2.521109581E-1
1.363200256E1,-1.181802750E-1,6.055979729E-1,-2.708258629E-1
1.365189756E1,8.773398399E-2,6.467838287E-1,-3.270668983E-1
1.367178928E1,1.038429737E-1,4.667181969E-1,-3.081593513E-1
1.369169386E1,3.307819366E-3,2.102594376E-1,-2.267293930E-1
1.371157355E1,-4.041671753E-3,2.754211426E-1,-1.843519211E-1
1.373146589E1,7.556796074E-2,4.384679794E-1,-2.357382774E-1
1.375135771E1,1.164793968E-1,3.955726624E-1,-2.219219208E-1
1.377123558E1,2.403755188E-1,2.027773857E-1,-1.071548462E-1
1.379113818E1,3.096461296E-2,3.669929504E-2,2.775621414E-2
1.381102933E1,-2.135748863E-1,1.125712395E-1,6.057167053E-2
1.383090172E1,-2.514486313E-1,2.204685211E-1,4.579019547E-2
1.385082297E1,-1.661682129E-1,2.070746422E-1,3.850841522E-2
1.387071709E1,4.557681084E-2,1.252727509E-1,2.775955200E-2
1.389059688E1,2.337114811E-1,1.206407547E-1,-7.521343231E-2
1.391049995E1,2.253077030E-1,2.103037834E-1,-1.834964752E-1
1.393039678E1,2.913627625E-1,3.066263199E-1,-2.367053032E-1
1.395026615E1,3.595559597E-1,2.444577217E-1,-3.412399292E-1
1.397014287E1,2.184727192E-1,2.895741463E-1,-3.563203812E-1
1.399005021E1,-4.220104218E-2,3.266921043E-1,-2.924003601E-1
1.400993964E1,-2.512090206E-1,2.347178459E-1,-1.777782440E-1
1.402982032E1,-2.592768669E-1,4.109144211E-2,-4.856300354E-2
1.404975230E1,-1.984317303E-1,-9.351396561E-2,-5.160999298E-2
1.406959610E1,-2.615513802E-1,-1.351418495E-1,3.683996201E-2
1.408950214E1,-3.063056469E-1,-8.905220032E-2,1.363143921E-1
1.410940011E1,-2.850615978E-1,1.474809647E-2,9.970426559E-2
1.412929178E1,-4.174041748E-1,7.689952850E-2,1.359906197E-1
1.414919324E1,-7.162358761E-1,1.291766167E-1,3.214812279E-1
1.416907178E1,-1.088459969E0,2.033691406E-1,4.648156166E-1
1.418897417E1,-1.531818628E0,4.327678680E-2,4.647250175E-1
1.420888495E1,-1.526692629E0,-2.971553802E-1,2.793068886E-1
1.422877324E1,-8.928360939E-1,-7.415475845E-1,-2.561402321E-1
1.424863370E1,5.880260468E-2,-1.359745026E0,-1.199474812E0
1.426852870E1,1.237817526E0,-2.081419945E0,-2.306140423E0
1.428843438E1,2.626689911E0,-3.047815561E0,-3.581717968E0
1.430832042E1,3.841908693E0,-4.545297146E0,-4.618052483E0
1.432820876E1,4.649726391E0,-6.014065742E0,-5.152634144E0
1.434810928E1,5.186880589E0,-7.049420834E0,-5.232539177E0
1.436801271E1,6.042794228E0,-7.476104736E0,-5.178144932E0
1.438789417E1,7.152561188E0,-7.286707878E0,-5.157549858E0
1.440781053E1,8.273302078E0,-6.724825859E0,-5.390907288E0
1.442769490E1,9.208149910E0,-5.385592461E0,-5.885186195E0
1.444756626E1,1.005266094E1,-3.475204229E0,-6.597799301E0
1.446747011E1,1.097752476E1,-6.042566299E-1,-7.489081383E0
1.448736084E1,1.166966438E1,3.621268034E0,-8.375204086E0
1.450725709E1,1.048670673E1,9.557853699E0,-1.064245033E1
1.452714198E1,4.261493206E0,1.667855453E1,-1.925058556E1
1.454704324E1,-6.938272476E0,2.393274307E1,-3.345375443E1
1.456692896E1,-4.444390774E0,4.183961868E1,-4.021102524E1
1.458684631E1,-2.685062885E-1,3.556758499E1,-4.847372437E1
1.460674974E1,-3.252927780E0,1.694995880E1,-5.276385880E1
1.462660006E1,-1.895427823E0,1.904160690E1,-4.754415894E1
1.464647907E1,-2.955700874E0,9.766716003E0,-6.010773087E1
1.466638454E1,7.879061699E-1,-7.065873623E0,-6.968317413E1
1.468628480E1,-2.749295712E0,-2.797868156E1,-6.566895294E1
1.470619261E1,-1.896764946E1,-4.300935745E1,-5.617704391E1
1.472608365E1,-2.324882317E1,-4.971965027E1,-3.567107010E1
1.474594829E1,-1.880814362E1,-4.550290298E1,-1.818913078E1
1.476584058E1,-1.143321037E1,-4.007878876E1,-1.065547180E1
1.478577907E1,-5.627716541E0,-3.157844543E1,-9.187493324E0
1.480564740E1,3.877482414E-1,-2.535141373E1,-8.356289864E0
1.482554115E1,1.893284082E0,-2.145397758E1,-7.961737156E0
1.484541860E1,2.535517931E0,-1.694673347E1,-6.997345924E0
1.486532917E1,2.446767092E0,-1.297070694E1,-4.737487316E0
1.488520516E1,7.358963490E-1,-9.580500603E0,-2.166240931E0
1.490508391E1,-8.683542013E-1,-7.231217384E0,-1.414307594E0
1.492500995E1,-9.665895700E-1,-4.378654957E0,-1.885309696E0
1.494491188E1,3.222392797E-1,-1.753163815E0,-1.710724354E0
1.496481422E1,-1.569648623E0,2.579212189E-1,1.149594784E0
1.498468787E1,-3.801552773E0,1.517853737E0,3.058311462E0
1.500454063E1,-2.338494539E0,3.504332542E0,2.282408237E0
1.502445141E1,3.260665894E0,4.953598022E0,-3.975710869E-1
1.504433120E1,6.421199799E0,4.981575012E0,-2.080664635E-1
1.506424230E1,5.173491478E0,4.436482430E0,2.501979828E0
1.508412412E1,4.400090218E0,3.612142563E0,2.534824371E0
1.510401115E1,3.391728401E0,3.173209190E0,2.221879959E-1
1.512392136E1,1.570963502E0,3.086870193E0,-3.845002651E-1
1.514380771E1,-8.793287277E-1,3.065340042E0,1.139139175E0
1.516372271E1,-1.554961205E0,2.233591080E0,1.450510979E0
1.518357360E1,-1.094379425E-1,1.021636963E0,1.448028088E-1
1.520347422E1,2.017973423E0,2.605342865E-1,-1.065056801E0
1.522336370E1,2.631614923E0,-2.250080109E-1,-5.467672348E-1
1.524328183E1,1.855069995E0,-2.523517609E-1,5.527353287E-1
1.526317313E1,1.300566673E0,-2.913379669E-1,6.758000851E-1
1.528303808E1,1.228268623E0,1.275482178E-1,-8.431911469E-2
1.530293787E1,1.615488529E0,7.274065018E-1,-5.334024429E-1
1.532285574E1,1.352226257E0,9.287014008E-1,-2.555842400E-1
1.534277032E1,1.136447191E0,8.108768463E-1,2.969355583E-1
1.536261766E1,7.040255070E-1,8.228569031E-1,5.552999973E-1
1.538252115E1,2.996301651E-1,1.126402855E0,6.780731678E-1
1.540242699E1,4.440841675E-1,1.381119728E0,5.988843441E-1
1.542230719E1,7.788355350E-1,1.533634186E0,3.825335503E-1
1.544219844E1,1.088504314E0,1.479942322E0,1.912887096E-1
1.546205959E1,1.128492117E0,1.276078224E0,7.281255722E-2
1.548197521E1,1.083907604E0,1.387382507E0,-7.855153084E-2
1.550184495E1,1.466554642E0,1.102997780E0,-3.339557648E-1
1.552178547E1,1.733691692E0,5.900382996E-1,-5.112860203E-1
1.554163141E1,1.518254042E0,1.502389908E-1,-4.094705582E-1
1.556155574E1,1.044143677E0,1.127738953E-1,-9.697222710E-2
1.558146881E1,9.412734509E-1,2.508192062E-1,-1.378195286E-1
1.560134157E1,1.023505449E0,1.567840576E-3,-5.725919008E-1
1.562120219E1,1.143289804E0,-1.739072800E-1,-6.973370314E-1
1.564109964E1,7.834446430E-1,-9.570121765E-2,-5.467613935E-1
1.566099662E1,4.903872013E-1,3.124151230E-1,-2.726769447E-1
1.568088219E1,5.130913258E-1,5.309171677E-1,-1.602962017E-1
1.570078777E1,6.328253746E-1,5.652618408E-1,-6.822013855E-2
1.572068037E1,5.426204205E-1,4.911909103E-1,2.833704948E-1
1.574056282E1,3.997843266E-1,4.473342896E-1,5.714690685E-1
1.576046490E1,4.063501358E-1,6.008749008E-1,5.646352768E-1
1.578035730E1,6.986789703E-1,6.835803986E-1,4.827203751E-1
1.580025657E1,8.809711933E-1,6.292209625E-1,4.649398327E-1
1.582012172E1,7.682168484E-1,4.773998260E-1,4.939668179E-1
1.584003615E1,5.841982365E-1,2.640161514E-1,3.586311340E-1
1.585991402E1,3.906171322E-1,1.485137939E-1,1.708371639E-1
1.587981178E1,2.113258839E-1,2.759733200E-1,4.237365723E-2
1.589973360E1,3.338956833E-1,4.858512878E-1,-2.926945686E-2
1.591958485E1,3.428921700E-1,4.524698257E-1,1.027452946E-1
1.593949553E1,2.636265755E-1,2.099332809E-1,8.160567284E-2
1.595941287E1,2.616100311E-1,3.605747223E-2,-8.329439163E-2
1.597926672E1,2.543871403E-1,-2.721691132E-2,-1.354322433E-1
1.599919396E1,2.205862999E-1,3.449058533E-2,-1.237509251E-1
1.601908334E1,3.502724171E-1,5.704212189E-2,-1.166348457E-1
1.603897511E1,4.181540012E-1,1.926584244E-1,-1.459493637E-1
1.605883110E1,4.997775555E-1,5.355787277E-1,-3.593864441E-1
1.607877329E1,8.121914864E-1,7.115678787E-1,-6.084692478E-1
1.609862152E1,9.153063297E-1,5.681848526E-1,-4.949624538E-1
1.611851469E1,3.713467121E-1,3.828811646E-1,-1.414012909E-2
1.613842490E1,-4.676847458E-1,2.990751266E-1,4.549813271E-1
1.615828277E1,-1.125092506E0,1.390447617E-1,6.253352165E-1
1.617818797E1,-1.738563538E0,-1.144752502E-1,7.110245228E-1
1.619806933E1,-2.454902172E0,-3.430528641E-1,7.962274551E-1
1.621796058E1,-2.745916367E0,-6.791000366E-1,6.780929565E-1
1.623784782E1,-2.201748848E0,-1.033013821E0,3.305432796E-1
1.625775324E1,-1.317873001E0,-1.129770756E0,-1.439077854E-1
1.627765990E1,-5.549001694E-1,-9.869966507E-1,-7.139420509E-1
1.629754079E1,8.612809181E-1,-9.598283768E-1,-1.308344722E0
1.631743454E1,2.958745003E0,-1.822434902E0,-2.161292553E0
1.633731600E1,4.603456497E0,-2.656436443E0,-2.563532591E0
1.635722344E1,5.429299355E0,-3.120605946E0,-2.803918362E0
1.637712605E1,6.441177368E0,-3.602894545E0,-3.090297222E0
1.639701501E1,8.025989532E0,-3.726815939E0,-2.993241787E0
1.641690152E1,9.856904984E0,-3.395948887E0,-2.868341446E0
1.643683584E1,1.137011433E1,-3.263077974E0,-2.743292093E0
1.645671089E1,1.228893852E1,-3.772537470E0,-2.255579710E0
1.647659824E1,1.326492310E1,-4.908115387E0,-1.675204754E0
1.649649990E1,1.441430664E1,-5.666257381E0,-1.959012985E0
1.651636386E1,1.494781685E1,-6.324286461E0,-2.828693390E0
1.653624100E1,1.553796196E1,-5.182317257E0,-3.382716179E0
1.655615698E1,1.486561775E1,1.101150036E0,-4.162355900E0
1.657606032E1,1.199350357E1,1.943816185E1,-1.100065136E1
1.659592032E1,3.192248106E0,3.840386963E1,-3.159854889E1
1.661580579E1,6.824033737E0,5.164869308E1,-4.496386337E1
1.663578011E1,5.660090446E-1,4.364086914E1,-5.671001434E1
1.665560152E1,-6.557327747E0,2.446431351E1,-6.879903412E1
1.667551324E1,-1.073995399E1,8.203756332E0,-6.899827576E1
1.669540563E1,-1.782448387E1,-3.915740490E0,-6.703238678E1
1.671529282E1,-2.045984650E1,-1.988947296E1,-6.083708954E1
1.673517193E1,-1.943287086E1,-4.014022827E1,-5.412074280E1
1.675508907E1,-1.643579865E1,-4.916004944E1,-3.884678650E1
1.677497126E1,-1.065527439E1,-4.914337540E1,-2.657659721E1
1.679486198E1,-7.106274128E0,-4.211029816E1,-1.918743706E1
1.681480485E1,-2.911306381E0,-3.443536758E1,-1.439548492E1
1.683463980E1,-3.959019184E-1,-2.949465179E1,-1.082460022E1
1.685452896E1,1.232371092E0,-2.287543106E1,-7.803035736E0
1.687443813E1,2.027672291E0,-1.566022682E1,-5.418572426E0
1.689433428E1,-7.680314779E-1,-9.971437454E0,-2.493649960E0
1.691422605E1,-2.931919098E0,-5.390513420E0,-8.468494415E-1
1.693408589E1,-6.089051366E-1,-1.237136841E0,-1.183602810E0
1.695399652E1,2.137850225E-2,1.949992657E0,1.086647511E0
1.697386563E1,-1.925629258E0,3.675534248E0,4.348889828E0
1.699380469E1,5.100336671E-1,3.727738857E0,2.811686039E0
1.701365818E1,4.050164223E0,3.021682262E0,-5.045971870E-1
1.703354672E1,2.508445501E0,2.557631493E0,2.626084805E0
1.705344350E1,6.025093794E-2,2.803694725E0,6.284368992E0
1.707335329E1,5.110458136E-1,1.713754654E0,2.946184158E0
1.709322933E1,1.291157365E0,7.316389084E-1,-2.287291765E0
1.711311006E1,8.081235886E-1,2.227649689E-1,-1.254058361E0
1.713300777E1,-1.179654837E0,4.837632179E-1,2.576519489E0
1.715291824E1,-2.125285149E0,8.161015511E-1,2.521236420E0
1.717282511E1,-1.733315468E0,1.009250641E0,1.235489845E-1
1.719273589E1,-7.103371620E-2,1.561532974E0,-1.368842125E0
1.721257844E1,8.831324577E-1,2.302694321E0,1.978259087E-1
1.723249245E1,1.043068409E0,2.795489788E0,9.081788063E-1
1.725238761E1,1.285805941E0,2.946491241E0,-3.691232204E-1
1.727227412E1,1.716400862E0,2.828551769E0,-1.844254971E0
1.729214313E1,2.238461256E0,2.601909637E0,-2.170741081E0
1.731204693E1,2.165814877E0,2.650646210E0,-5.886170864E-1
1.733194542E1,2.158384800E0,2.330575466E0,5.524532795E-1
1.735183553E1,2.328591108E0,2.066018581E0,2.349309921E-1
1.737179021E1,2.058087826E0,1.737037182E0,-4.821205139E-1
1.739163313E1,1.891511679E0,1.572084427E0,-6.509342194E-1
1.741149938E1,2.121530533E0,1.280024052E0,-4.449915886E-1
1.743143678E1,2.270582199E0,8.709096909E-1,-1.632566452E-1
1.745134704E1,2.180044889E0,8.374300003E-1,-5.946600437E-1
1.747119678E1,1.978090286E0,1.363623619E0,-1.000498056E0
1.749108610E1,1.821499825E0,1.361311913E0,-1.087341309E0
1.751099042E1,1.501207829E0,1.005620956E0,-7.521433830E-1
1.753090214E1,1.156236649E0,6.987786293E-1,-2.890157700E-1
1.755077469E1,8.775119781E-1,6.675381660E-1,-4.660754204E-1
1.757066636E1,1.124563694E0,8.706779480E-1,-6.851627827E-1
1.759055037E1,1.177188158E0,8.930020332E-1,-5.525312424E-1
1.761045021E1,9.417061806E-1,9.042186737E-1,-1.982393265E-1
1.763034407E1,4.972805977E-1,9.739599228E-1,-8.128261566E-2
1.765020870E1,3.621001244E-1,8.097686768E-1,-1.559381485E-1
1.767012990E1,3.633093834E-1,6.228046417E-1,-2.225303650E-1
1.768998891E1,2.392292023E-1,5.186834335E-1,-2.160708904E-1
1.770988381E1,-8.690452576E-2,6.219358444E-1,-2.840280533E-2
1.772980407E1,-2.106194496E-1,5.248727798E-1,6.026744843E-3
1.774976016E1,7.242250443E-2,3.361883163E-1,-1.393306255E-1
1.776958146E1,3.044652939E-1,2.293844223E-1,-2.497460842E-1
1.778948126E1,2.409462929E-1,1.543798447E-1,-2.038624287E-1
1.780936396E1,3.445487022E-1,2.819919586E-2,-6.428050995E-2
1.782926032E1,4.959416389E-1,-1.738739014E-2,3.011941910E-2
1.784913110E1,5.681977272E-1,-1.844148636E-1,-4.782509804E-2
1.786902193E1,2.278246880E-1,-8.871173859E-2,-3.094584942E-1
1.788893574E1,-2.124137878E-1,3.135919571E-1,-3.555629253E-1
1.790885547E1,-3.146743774E-1,1.865158081E-1,-2.338583469E-1
1.792876297E1,-5.075807571E-1,-4.709529877E-2,-2.211086750E-1
1.794862365E1,-6.911730766E-1,3.398704529E-2,-2.227528095E-1
1.796851469E1,-5.276503563E-1,1.012868881E-1,-2.317724228E-1
1.798836839E1,-3.184313774E-1,4.341030121E-2,-1.110394001E-1
1.800829574E1,-2.273921967E-1,-7.846164703E-2,1.789638996E-1
1.802817188E1,-5.692124367E-1,-8.205318451E-2,2.869639397E-1
1.804804672E1,-9.872221947E-1,7.392787933E-2,6.336379051E-2
1.806793433E1,-1.164799213E0,1.632795334E-1,-2.944610119E-1
1.808785688E1,-1.060241222E0,8.389568329E-2,-3.304257393E-1
1.810775495E1,-9.288020134E-1,-5.384254456E-2,1.015238762E-1
1.812763730E1,-6.939935684E-1,-4.384231567E-2,2.988078594E-1
1.814754777E1,-3.861951828E-1,1.304769516E-2,1.744792461E-1
1.816742344E1,-1.974792480E-1,-3.810739517E-2,8.243083954E-2
1.818728360E1,-1.413841248E-1,-1.346144676E-1,1.042799950E-1
1.820718100E1,-1.209845543E-1,-3.394894600E-1,-2.167987823E-2
1.822709594E1,1.527576447E-1,-6.921110153E-1,-2.820413113E-1
1.824696974E1,8.639774323E-1,-1.112305164E0,-5.975749493E-1
1.826687709E1,1.902056217E0,-1.521386147E0,-1.027451515E0
1.828681079E1,2.875597954E0,-1.979703426E0,-1.243369579E0
1.830667386E1,3.512815475E0,-2.864385128E0,-9.785094261E-1
1.832655058E1,3.702173710E0,-3.732874393E0,-4.708511829E-1
1.834644297E1,4.650747776E0,-5.409967422E0,-7.453060150E-1
1.836632844E1,6.080227375E0,-6.509681225E0,-1.772020817E0
1.838621563E1,7.207112312E0,-7.629516602E0,-2.329734325E0
1.840613839E1,8.638128281E0,-7.605520248E0,-2.476505995E0
1.842601954E1,9.969429016E0,-7.037455082E0,-2.497938633E0
1.844593027E1,1.106421089E1,-6.529100418E0,-2.885410309E0
1.846582667E1,1.190425396E1,-5.982105255E0,-3.618338585E0
1.848578360E1,1.246000767E1,-4.503986359E0,-4.554045677E0
1.850558506E1,1.286731625E1,8.617646694E-1,-5.760346889E0
1.852547610E1,1.333505249E1,1.275739288E1,-1.056803417E1
1.854538428E1,8.654754639E0,2.134885025E1,-2.457193565E1
1.856528053E1,4.474587440E0,3.853558350E1,-3.980646515E1
1.858517032E1,1.152981758E0,5.468336487E1,-4.871449280E1
1.860504876E1,6.088800430E-1,3.348823929E1,-6.311192703E1
1.862492339E1,3.647056520E-1,1.610598183E1,-6.836595154E1
1.864486808E1,-8.220693588E0,4.020619869E0,-6.853543091E1
1.866477068E1,-1.415590954E1,-6.553820610E0,-6.657923126E1
1.868460870E1,-1.635434341E1,-2.295303535E1,-6.638777161E1
1.870451907E1,-2.060501289E1,-4.780811310E1,-5.622103882E1
1.872440297E1,-1.972793007E1,-5.695278168E1,-3.356787872E1
1.874430198E1,-1.353642750E1,-5.416220093E1,-1.877282715E1
1.876419938E1,-9.172940254E0,-4.358769608E1,-1.185457039E1
1.878407219E1,-4.028971672E0,-3.387197876E1,-8.689167023E0
1.880395631E1,6.530900002E-1,-2.612049103E1,-7.833910942E0
1.882385370E1,3.337810993E0,-1.897102356E1,-6.674956322E0
1.884377646E1,2.192926407E0,-1.291467381E1,-3.999745369E0
1.886363969E1,-5.068497062E-1,-7.504344940E0,-1.992671728E0
1.888355521E1,-6.854611635E-2,-3.349302769E0,-2.348437786E0
1.890341990E1,2.085559368E0,2.229623795E-1,-2.832112312E0
1.892331292E1,2.018038273E0,2.325504303E0,-6.195249557E-1
1.894323751E1,6.395840645E-1,3.541689873E0,2.015899181E0
1.896310297E1,8.803465366E-1,4.320402145E0,1.584117889E0
1.898300011E1,1.246112347E0,3.649080276E0,7.340474129E-1
1.900291834E1,-8.566727638E-1,3.068996429E0,3.495631695E0
1.902279396E1,-8.815389872E-1,3.878915787E0,4.311326981E0
1.904266600E1,1.731121421E0,3.372863770E0,1.212547302E0
1.906258860E1,3.043680191E0,2.671298027E0,-1.142122030E0
1.908247011E1,1.642275691E0,2.363555908E0,1.137837410E0
1.910236709E1,4.898760319E-1,2.726036072E0,2.791473389E0
1.912225355E1,1.731013060E0,1.644127846E0,1.878389597E0
1.914214667E1,3.018001318E0,4.736461639E-1,-5.285811424E-2
1.916205344E1,2.730446577E0,4.216670990E-2,-1.011337280E0
1.918190933E1,8.799750805E-1,7.870168686E-1,-1.839141846E-1
1.920180678E1,1.236457825E-1,1.133635044E0,1.149702072E-1
1.922171115E1,8.845040798E-1,1.319560528E0,-7.219016552E-1
1.924158579E1,1.783891678E0,1.465303421E0,-1.827149630E0
1.926148662E1,1.723380804E0,1.838912487E0,-1.466299653E0
1.928138334E1,8.328804970E-1,2.409898281E0,-5.023581982E-1
1.930129855E1,9.586653709E-1,2.489107132E0,-5.147540569E-1
1.932117105E1,1.771859646E0,2.086062431E0,-1.222116709E0
1.934108162E1,2.494550705E0,1.615877151E0,-1.605486035E0
1.936094579E1,2.325132132E0,1.465329170E0,-9.749462605E-1
1.938083131E1,2.191696167E0,1.323753357E0,-2.918915749E-1
1.940078350E1,2.550541162E0,1.226636887E0,-1.304769516E-1
1.942068459E1,2.891385078E0,1.097105026E0,-3.736507893E-1
1.944054266E1,2.621210337E0,1.097867966E0,-6.372096539E-1
1.946044615E1,2.172586441E0,1.088315487E0,-3.618512154E-1
1.948033063E1,1.340216160E0,1.139521599E0,1.128158569E-1
1.950019948E1,8.015241623E-1,1.253857136E0,4.166078568E-2
1.952009318E1,8.711056709E-1,1.434591770E0,-3.071634769E-1
1.953997350E1,9.795603752E-1,1.129312038E0,-5.278499126E-1
1.955987193E1,9.004096985E-1,7.613534927E-1,-4.214816093E-1
1.957977209E1,4.507160187E-1,6.910600662E-1,-3.890702724E-1
1.959966657E1,2.618112564E-1,1.083834648E0,-5.030617714E-1
1.961956063E1,3.635964394E-1,1.047904968E0,-5.259184837E-1
1.963946063E1,3.370313644E-1,5.457029343E-1,-4.659725428E-1
1.965934740E1,1.805658340E-1,1.850090027E-1,-3.159034252E-1
1.967921948E1,-3.227758408E-2,2.385196686E-1,-2.930178642E-1
1.969913021E1,-2.187104225E-1,4.021806717E-1,-3.673601151E-1
1.971902469E1,-2.615380287E-1,3.993034363E-1,-2.443740368E-1
1.973890532E1,-2.157459259E-1,2.112379074E-1,-2.732825279E-2
1.975881605E1,3.953933716E-2,1.093645096E-1,-3.772497177E-2
1.977874058E1,3.615713120E-1,6.517314911E-2,-2.501635551E-1
1.979860209E1,3.688249588E-1,7.797718048E-2,-2.884194851E-1
1.981847381E1,1.927456856E-1,3.147315979E-2,1.349413395E-1
1.983837443E1,-3.618240356E-3,1.340084076E-1,4.967012405E-1
1.985827386E1,-9.132909775E-2,5.202741623E-1,6.111412048E-1
1.987815271E1,-1.967716217E-2,8.934059143E-1,5.078616142E-1
1.989804209E1,9.299755096E-3,8.381452560E-1,1.785805225E-1
1.991795480E1,-2.072868347E-1,4.386138916E-1,-1.155374050E-1
1.993782027E1,-3.256697655E-1,1.498889923E-1,-4.136557579E-1
1.995774589E1,-3.353128433E-1,-7.058048248E-2,-8.344426155E-1
1.997760579E1,-2.636384964E-1,-2.524247169E-1,-1.006430984E0
1.999752204E1,-1.099376678E-1,-2.518796921E-1,-7.744045258E-1
2.001741667E1,3.662300110E-2,-2.252650261E-1,-3.972921371E-1
2.003729027E1,1.052560806E-1,-1.909909248E-1,-2.624433041E-1
2.005718141E1,-3.714418411E-2,-1.358275414E-1,-2.541918755E-1
2.007705667E1,-2.711968422E-1,-4.126405716E-2,-3.379034996E-2
2.009698808E1,-1.973142624E-1,7.636499405E-2,2.596423626E-1
2.011687027E1,-1.485838890E-1,-2.011070251E-1,5.257768631E-1
2.013678933E1,-5.537347794E-1,-4.116749763E-1,4.571213722E-1
2.015663735E1,-9.911828041E-1,-7.614922523E-1,1.316986084E-1
2.017653865E1,-1.227176666E0,-1.150353432E0,-2.775263786E-1
2.019642620E1,-9.994344711E-1,-1.490593433E0,-6.202001572E-1
2.021630605E1,-3.607926369E-1,-1.644932747E0,-1.000712156E0
2.023622542E1,5.098462105E-1,-1.693155289E0,-1.329595208E0
2.025610089E1,1.364115000E0,-2.235431671E0,-1.611984849E0
2.027600146E1,2.098781824E0,-3.557686806E0,-2.129427433E0
2.029587714E1,2.536114216E0,-5.216762543E0,-3.053360939E0
2.031579219E1,2.425968885E0,-6.789962769E0,-3.536806822E0
2.033566355E1,2.747058153E0,-7.445618153E0,-2.890668392E0
2.035558251E1,3.753284454E0,-8.017460823E0,-1.608354568E0
2.037547964E1,4.706768036E0,-8.555418968E0,-1.175121903E0
2.039536938E1,5.615315914E0,-8.982565880E0,-1.282570720E0
2.041525870E1,6.692368507E0,-9.014575958E0,-1.581493497E0
2.043512803E1,8.164113045E0,-7.674228668E0,-2.103595018E0
2.045505480E1,9.819392204E0,-3.673536777E0,-3.195501804E0
2.047492516E1,1.061875916E1,-1.273735762E0,-4.879379272E0
2.049482146E1,9.492244720E0,-1.196162939E0,-6.600617886E0
2.051477313E1,7.074670792E0,3.455805063E0,-1.015360069E1
2.053459047E1,4.517736435E-1,1.765929222E1,-1.824993896E1
2.055451974E1,-9.208950043E0,2.486578560E1,-3.296037292E1
2.057440542E1,-7.531885147E0,3.653334808E1,-5.112369156E1
2.059429490E1,6.393193245E0,4.350576782E1,-6.239784622E1
2.061415870E1,1.121421242E1,1.843307686E1,-6.826791382E1
2.063405829E1,9.953563690E0,4.687861919E0,-6.605107117E1
2.065394834E1,-1.454344034E0,-1.158332348E0,-5.826275635E1
2.067383719E1,-1.154124832E1,-9.953397751E0,-6.470699310E1
2.069374136E1,-1.618338776E1,-3.046813965E1,-7.217222595E1
2.071364136E1,-2.490204048E1,-5.184003067E1,-6.302494049E1
2.073350589E1,-2.358429146E1,-5.450806046E1,-3.796496201E1
2.075341126E1,-1.605397606E1,-4.808335876E1,-2.052744102E1
2.077332219E1,-9.076465607E0,-3.958653641E1,-1.209402752E1
2.079319089E1,-6.380875587E0,-3.090001106E1,-8.594833374E0
2.081307672E1,-3.016877174E0,-2.401835060E1,-7.039652824E0
2.083296860E1,-1.105510116E0,-1.856959534E1,-6.536349297E0
2.085290610E1,-7.284739017E-1,-1.355440712E1,-5.478030205E0
2.087279506E1,-1.738188982E0,-9.646341324E0,-3.228882551E0
2.089267240E1,-2.851105213E0,-6.229681015E0,-1.832850456E0
2.091256678E1,-2.180025578E0,-2.926716805E0,-2.164070368E0
2.093245844E1,-1.039587021E0,-3.369455338E-1,-2.217941284E0
2.095232224E1,-2.066475868E0,1.682827950E0,-8.039324284E-1
2.097222787E1,-2.061468601E0,3.373815536E0,1.885023117E-1
2.099210152E1,1.170791388E-1,3.919942856E0,-5.624635220E-1
2.101200834E1,1.426322460E0,3.741255760E0,-8.724405766E-1
2.103191751E1,1.954090595E-2,3.952474594E0,1.071168661E0
2.105180751E1,1.499639750E-1,3.897060394E0,1.837382317E0
2.107171183E1,2.630902052E0,3.061706543E0,-4.175066948E-2
2.109156324E1,4.226178169E0,1.785691261E0,-8.482863903E-1
2.111148542E1,3.706477165E0,1.421828270E0,1.414128304E0
2.113137152E1,3.397463799E0,2.017997742E0,2.165463209E0
2.115126407E1,3.340874672E0,1.925514221E0,5.269279480E-1
2.117113501E1,3.316170692E0,1.173528671E0,-1.535434961E0
2.119105068E1,2.812227726E0,7.364339828E-1,-1.924718142E0
2.121092995E1,1.789742470E0,1.260837555E0,-1.133589745E0
2.123084162E1,1.557175636E0,1.927493095E0,-8.475620747E-1
2.125073469E1,2.046073198E0,2.273051262E0,-1.270373583E0
2.127063011E1,2.303656816E0,1.743995667E0,-1.180802941E0
2.129051407E1,2.123284817E0,1.124571800E0,-1.605169773E-1
2.131037412E1,2.426195145E0,6.289606094E-1,4.539747238E-1
2.133028813E1,2.642349720E0,9.375734329E-1,4.790074825E-1
2.135016777E1,2.166439533E0,1.159844398E0,-4.044270515E-2
2.137007454E1,1.687875271E0,9.782857895E-1,-4.154212475E-1
2.138996948E1,1.281816006E0,1.201823235E0,-2.929100990E-1
2.140986615E1,7.538726330E-1,1.613735199E0,-2.623667717E-1
2.142976521E1,5.342650414E-1,1.903700829E0,-4.731212854E-1
2.144962615E1,3.898034096E-1,1.871255875E0,-4.190192223E-1
2.146953907E1,1.428971291E-1,1.785770416E0,-2.674361467E-1
2.148941652E1,3.362593651E-1,1.857711792E0,-3.928024769E-1
2.150933824E1,8.543820381E-1,1.771588326E0,-5.555607080E-1
2.152922480E1,1.262554169E0,1.350374222E0,-4.846569300E-1
2.154909391E1,1.191926956E0,8.272209167E-1,-3.193068504E-2
2.156900740E1,1.193385124E0,6.406373978E-1,7.867693901E-2
2.158889928E1,1.236650467E0,7.218589783E-1,-3.651561737E-1
2.160883115E1,1.127301931E0,7.095804214E-1,-8.251049519E-1
2.162872100E1,8.100805283E-1,5.172376633E-1,-9.462368488E-1
2.164856725E1,4.250788689E-1,2.726354599E-1,-6.353003979E-1
2.166844600E1,2.686882019E-1,3.166427612E-1,-3.171126842E-1
2.168834141E1,2.529783249E-1,4.218206406E-1,-2.596275806E-1
2.170825126E1,3.913183212E-1,3.793621063E-1,-3.253860474E-1
2.172814792E1,3.519401550E-1,2.161169052E-1,-3.198139668E-1
2.174803412E1,9.887886047E-2,1.699352264E-1,-2.872388363E-1
2.176791292E1,-3.231143951E-2,2.647972107E-1,-1.541452408E-1
2.178779297E1,-5.391836166E-2,2.063798904E-1,-2.224891186E-1
2.180772402E1,-6.688594818E-3,3.650474548E-2,-3.189680576E-1
2.182764167E1,1.021652222E-1,6.360149384E-2,-2.742519379E-1
2.184749027E1,-2.200031281E-1,2.547416687E-1,-2.269139290E-1
2.186739282E1,-2.858629227E-1,4.035482407E-1,-1.753070354E-1
2.188727042E1,-5.089139938E-2,7.484245300E-2,-1.615121365E-1
2.190716829E1,-1.251311302E-1,-2.387661934E-1,9.701085091E-2
2.192705495E1,-6.343102455E-1,-1.548452377E-1,4.438920021E-1
2.194694334E1,-8.129005432E-1,-2.705764771E-2,3.546614647E-1
2.196687730E1,-4.977965355E-1,-5.729198456E-2,5.551099777E-3
2.198679344E1,-5.958223343E-2,-1.578617096E-1,-2.672848701E-1
2.200661547E1,2.156610489E-1,-1.311950684E-1,-5.407702923E-1
2.202650537E1,3.861856461E-1,-4.549598694E-2,-6.764564514E-1
2.204641490E1,1.518325806E-1,-2.315039635E-1,-6.373566389E-1
2.206629704E1,-5.820345879E-1,-4.957227707E-1,-3.093416691E-1
2.208618615E1,-1.195671558E0,-6.367383003E-1,5.389833450E-2
2.210609188E1,-1.367229939E0,-5.020608902E-1,2.072036266E-1
2.212598188E1,-1.389150143E0,-3.387804031E-1,1.018779278E-1
2.214585068E1,-1.720067501E0,-6.454119682E-1,-4.930436611E-1
2.216581610E1,-2.453285694E0,-7.285752296E-1,-1.257372975E0
2.218565042E1,-2.563345909E0,-1.234006882E-2,-1.545754194E0
2.220554662E1,-1.563319206E0,2.028226852E-1,-1.546101332E0
2.222542495E1,-1.459827423E-1,-7.163162231E-1,-1.700206757E0
2.224532699E1,1.213600159E0,-1.172135830E0,-1.950300097E0
2.226521782E1,2.260463953E0,-1.442919254E0,-2.435450792E0
2.228512605E1,2.645653486E0,-2.065239906E0,-3.007353067E0
2.230500584E1,2.811166286E0,-2.668455601E0,-3.153459311E0
2.232488699E1,3.147918463E0,-3.157698631E0,-2.878708839E0
2.234483376E1,3.726778746E0,-3.841086149E0,-2.203541279E0
2.236474376E1,5.130461693E0,-4.198916912E0,-1.480363131E0
2.238458006E1,6.601994514E0,-4.840264320E0,-8.729262352E-1
2.240448636E1,7.656183243E0,-5.453467846E0,-4.471564293E-1
2.242437761E1,8.464780807E0,-5.541547298E0,-2.849185467E-1
2.244426224E1,8.955153465E0,-5.743607044E0,-3.374434710E-1
2.246413891E1,8.802963257E0,-6.197042465E0,2.898716927E-2
2.248405719E1,8.003578186E0,-5.308407784E0,1.599408388E0
2.250392339E1,8.745671272E0,-2.163930416E0,7.892320156E-1
2.252383834E1,9.696267128E0,2.812790394E0,-4.305096149E0
2.254372480E1,7.724927425E0,1.128820992E1,-1.507280731E1
2.256362344E1,-2.197329521E0,2.090238380E1,-2.529824066E1
2.258352303E1,-5.509365559E0,4.097481537E1,-2.737168121E1
2.260340834E1,-5.038192749E0,3.985754395E1,-4.134057999E1
2.262330449E1,-3.492139339E0,2.898664284E1,-6.330701828E1
2.264316724E1,1.109045982E0,2.264417458E1,-6.465911865E1
2.266307256E1,-3.655221462E0,1.195700550E1,-6.304962921E1
2.268297303E1,-8.541373253E0,-6.575302124E0,-6.925708008E1
2.270289495E1,-1.340273285E1,-2.276524734E1,-7.058486938E1
2.272276157E1,-2.466170311E1,-4.187502670E1,-7.198526001E1
2.274265761E1,-2.582186890E1,-5.217330551E1,-6.089691925E1
2.276254688E1,-2.128791237E1,-4.991296768E1,-3.700570679E1
2.278244511E1,-1.514969349E1,-5.115585709E1,-1.978626633E1
2.280230839E1,-1.270761681E1,-4.507260895E1,-8.068493843E0
2.282219506E1,-7.196142673E0,-3.403812027E1,-1.552058697E0
2.284208698E1,-3.647597790E0,-2.706907082E1,-2.256813049E0
2.286200834E1,-2.517184734E0,-2.014279556E1,-5.025841236E0
2.288186438E1,-2.362023830E0,-1.337855721E1,-4.446702957E0
2.290179199E1,-3.539346933E0,-7.492147923E0,-3.487095833E0
2.292168448E1,-1.985305905E0,-2.473281384E0,-4.569289684E0
2.294155037E1,1.217488885E0,1.693551064E0,-4.807457924E0
2.296144454E1,2.391124725E0,4.656646729E0,-3.429408312E0
2.298136224E1,6.399486065E-1,5.070713043E0,-1.372574210E0
2.300125146E1,-1.152871728E0,4.899129868E0,-8.756136894E-2
2.302113949E1,-1.281269193E0,4.887186050E0,8.155331612E-1
2.304103303E1,-1.015223861E0,4.784139633E0,1.366814613E0
2.306090688E1,1.042826891E0,3.996689796E0,5.519797802E-1
2.308082928E1,2.459893942E0,2.501348495E0,3.767111301E-1
2.310072495E1,5.140044689E-1,1.979987144E0,2.556843042E0
2.312059928E1,-3.947038651E-1,2.246139526E0,3.047409058E0
2.314049292E1,1.747859716E0,2.310533524E0,8.541977406E-1
2.316038094E1,3.453301907E0,1.921881676E0,-1.303927183E0
2.318029141E1,2.412453651E0,1.415143967E0,5.682063103E-1
2.320016282E1,8.695514202E-1,6.472644806E-1,2.819447041E0
2.322003615E1,1.456087589E0,-1.018524170E-2,2.443788528E0
2.323993589E1,2.039597034E0,6.059436798E-1,6.252193451E-2
2.325982693E1,1.895658493E0,1.074482918E0,-2.144479275E0
2.327976391E1,2.397630215E0,1.242245674E0,-2.678705215E0
2.329964094E1,2.426121712E0,1.241056442E0,-1.640566945E0
2.331952938E1,2.286206722E0,1.405523300E0,-9.383311272E-1
2.333942532E1,2.800477505E0,1.492919922E0,-1.632684350E0
2.335931636E1,3.320141792E0,1.235622406E0,-2.685699940E0
2.337920563E1,3.626762152E0,9.989309311E-1,-2.434279442E0
2.339908860E1,3.284412861E0,1.288929939E0,-1.086749315E0
2.341897402E1,2.755953789E0,1.221304893E0,-2.482075691E-1
2.343887730E1,2.135238171E0,8.868885040E-1,-8.143019676E-2
2.345879224E1,2.471974134E0,1.022341728E0,-8.238646984E-1
2.347866636E1,2.429822206E0,1.238525391E0,-1.109675646E0
2.349854131E1,2.149789333E0,1.426945686E0,-7.606112957E-1
2.351845334E1,1.942208767E0,1.105710983E0,-4.842340946E-1
2.353834136E1,1.144526958E0,8.362588882E-1,-4.412481785E-1
2.355824199E1,8.788487911E-1,1.152547836E0,-4.998040199E-1
2.357811292E1,1.084076166E0,1.247113228E0,-4.437034130E-1
2.359800271E1,7.987320423E-1,8.978538513E-1,-2.720801830E-1
2.361789016E1,4.149782658E-1,7.537813187E-1,-1.952409744E-2
2.363779740E1,3.279449940E-1,7.809591293E-1,4.286003113E-2
2.365770407E1,1.736285686E-1,7.790327072E-1,-2.224762440E-1
2.367758896E1,1.058721542E-2,6.860246658E-1,-5.263775587E-1
2.369749053E1,-3.198504448E-2,4.637622833E-1,-4.600774050E-1
2.371738105E1,-1.720426083E-1,2.169437408E-1,-2.496550083E-1
2.373727053E1,-3.371341228E-1,2.308406830E-1,-2.304134369E-1
2.375713995E1,-5.237858295E-1,3.608312607E-1,-3.175392151E-1
2.377705042E1,-4.314689636E-1,2.573289871E-1,-4.304295778E-1
2.379697193E1,-1.465277672E-1,-1.931571960E-2,-3.621355295E-1
2.381686074E1,6.200790405E-3,-3.409137726E-1,-8.841514587E-3
2.383676172E1,-4.932355881E-2,-2.868413925E-1,1.615545750E-1
2.385662480E1,-1.079268456E-1,5.633735657E-2,2.308177948E-2
2.387650745E1,-2.340080738E-1,2.467117310E-1,-9.432339668E-2
2.389640402E1,-1.400244236E-1,9.450149536E-2,-1.218647957E-1
2.391629917E1,-6.372427940E-2,-3.139495850E-3,-1.428973675E-1
2.393616152E1,-9.519410133E-2,1.218481064E-1,-1.674537659E-1
2.395607584E1,-3.403155804E-1,2.971534729E-1,-5.298590660E-2
2.397595922E1,-5.866463184E-1,3.403244019E-1,-2.043724060E-2
2.399584657E1,-5.961630344E-1,1.959009171E-1,-3.243041039E-2
2.401580865E1,-4.218676090E-1,-7.881736755E-2,-2.991843224E-2
2.403564797E1,-3.824505806E-1,-3.046436310E-1,-3.489160538E-2
2.405554198E1,-7.275209427E-1,-4.877948761E-1,4.047799110E-2
2.407541412E1,-1.239117861E0,-6.249322891E-1,7.199525833E-3
2.409532490E1,-1.950984240E0,-7.715940475E-1,-1.242961884E-1
2.411522563E1,-2.498940468E0,-8.557209969E-1,-2.231557369E-1
2.413511245E1,-2.561225414E0,-7.203245163E-1,-2.317719460E-1
2.415498454E1,-2.177423954E0,-3.313560486E-1,-3.681035042E-1
2.417487735E1,-1.423410416E0,-2.604923248E-1,-6.601458788E-1
2.419480766E1,-5.975780487E-1,-4.688119888E-1,-8.861831427E-1
2.421466495E1,-8.913660049E-2,-7.427654266E-1,-8.574153185E-1
2.423453954E1,-1.985025406E-2,-1.074875832E0,-5.595881939E-1
2.425447626E1,-2.114629745E-2,-1.440592766E0,-4.800357819E-1
2.427432735E1,3.365607262E-1,-1.672603130E0,-6.241652966E-1
2.429421141E1,1.188511610E0,-2.933817387E0,-2.120463848E-1
2.431410563E1,3.093124151E0,-3.522730350E0,-1.199224710E0
2.433401824E1,4.533489227E0,-4.787829399E0,-2.415739059E0
2.435390324E1,5.004663467E0,-6.254495621E0,-3.243143320E0
2.437381563E1,4.888343811E0,-7.294887543E0,-3.387954712E0
2.439371719E1,5.612137318E0,-7.325096130E0,-2.815922737E0
2.441360021E1,5.806907654E0,-7.173769951E0,-2.566534519E0
2.443347011E1,5.725401878E0,-6.962966442E0,-2.791720629E0
2.445341985E1,6.257407188E0,-5.970702648E0,-3.258295059E0
2.447326777E1,7.560850620E0,-4.589403152E0,-4.029676914E0
2.449316230E1,8.369825363E0,-2.839244604E0,-4.935398102E0
2.451305089E1,7.113886833E0,4.148249030E-1,-6.396235466E0
2.453296094E1,4.119443893E0,8.772349358E0,-1.036558533E1
2.455287891E1,-1.132279396E0,2.499336624E1,-1.950958252E1
2.457276037E1,-7.798938751E0,3.616590118E1,-3.072728539E1
2.459262256E1,-6.252634525E0,4.906729507E1,-3.717928314E1
2.461250209E1,-3.723664284E-1,4.655089188E1,-4.502404022E1
2.463239329E1,1.196912956E1,2.433535194E1,-5.553782654E1
2.465231209E1,1.392859840E1,1.372255325E1,-5.634601593E1
2.467219459E1,6.360252380E0,4.911018372E0,-6.545432281E1
2.469207521E1,4.144906998E-3,-5.703092575E0,-6.997446442E1
2.471198355E1,-1.078179359E1,-2.525913620E1,-7.164379120E1
2.473187240E1,-2.711144638E1,-4.424975204E1,-6.831394958E1
2.475177053E1,-2.971582031E1,-5.134694672E1,-4.451921082E1
2.477167136E1,-2.477875900E1,-4.825784683E1,-2.389505386E1
2.479156386E1,-1.519505882E1,-4.233318710E1,-1.326236725E1
2.481145105E1,-1.004623985E1,-3.406497955E1,-8.588941574E0
2.483132876E1,-5.871493816E0,-2.743767166E1,-7.261021614E0
2.485122980E1,-4.608454227E0,-2.211670303E1,-6.618130684E0
2.487110589E1,-4.544857979E0,-1.656386948E1,-4.542304039E0
2.489099516E1,-3.468927622E0,-1.169552803E1,-1.711684942E0
2.491090563E1,-2.592746258E0,-7.636408329E0,-5.057175159E-1
2.493078917E1,-1.577368736E0,-3.804917336E0,-1.930761337E-2
2.495068058E1,-1.378572106E0,-7.395343781E-1,8.921792507E-1
2.497058001E1,-1.245816588E0,1.631845474E0,1.613775492E0
2.499045141E1,-6.824994087E-2,3.161023140E0,1.527923584E0
2.501035803E1,4.776496291E-1,3.103160858E0,2.390132189E0
2.503023792E1,-2.068477631E0,2.425067902E0,4.030683994E0
2.505015136E1,-1.990446329E0,2.405890465E0,3.406210423E0
2.507003553E1,1.308641434E0,1.530847549E0,4.139842987E-1
2.508991922E1,3.952468872E0,1.197592735E0,-1.445490122E0
2.510983672E1,3.061026573E0,7.890701294E-1,8.387746811E-1
2.512972928E1,4.588900805E-1,9.401121140E-1,3.131599188E0
2.514966396E1,5.166416168E-1,1.050415039E0,1.996754408E0
2.516949480E1,1.823063731E0,1.028463364E0,-8.802831173E-1
2.518940188E1,3.275169373E0,9.312257767E-1,-2.911854744E0
2.520928230E1,3.980044842E0,1.311671257E0,-2.438867092E0
2.522916006E1,3.322286129E0,1.796643257E0,-4.634501934E-1
2.524906360E1,2.564708471E0,1.385858536E0,2.966678143E-1
2.526898183E1,2.278221607E0,1.012811661E0,-4.175753593E-1
2.528885699E1,1.829866290E0,9.409475327E-1,-9.372065067E-1
2.530881209E1,1.642822862E0,8.812398911E-1,-8.488171101E-1
2.532864615E1,2.047288418E0,8.659763336E-1,-2.408378124E-1
2.534851287E1,1.548940659E0,6.289691925E-1,1.311195374E0
2.536844469E1,9.750912189E-1,6.639318466E-1,1.638721228E0
2.538833396E1,1.379841566E0,9.030780792E-1,5.157549381E-1
2.540822605E1,1.753039122E0,9.323759079E-1,-2.297868729E-1
2.542810683E1,1.709192991E0,1.167274475E0,-4.184709787E-1
2.544801230E1,1.506319761E0,1.314540863E0,-2.939064503E-1
2.546789782E1,8.846721649E-1,1.124931335E0,2.400398254E-2
2.548780136E1,3.194742203E-1,1.387664795E0,1.046156883E-1
2.550764964E1,6.399118900E-1,1.506040573E0,-1.763255596E-1
2.552757063E1,9.861569405E-1,1.255464554E0,-4.315931797E-1
2.554747344E1,8.337016106E-1,9.439792633E-1,-7.052493095E-2
2.556732870E1,6.868860722E-1,8.171901703E-1,1.779456139E-1
2.558722777E1,6.866419315E-1,7.858333588E-1,1.106944084E-1
2.560713532E1,1.096499681E0,6.000833511E-1,-1.326835155E-1
2.562702303E1,1.481306553E0,4.641609192E-1,-1.078562737E-1
2.564692657E1,1.129060507E0,3.564310074E-1,1.593813896E-1
2.566684485E1,6.388010979E-1,5.011768341E-1,4.806780815E-2
2.568668568E1,5.024764538E-1,8.471870422E-1,-4.503319263E-1
2.570658751E1,7.251670361E-1,8.084697723E-1,-7.824822664E-1
2.572648266E1,9.619016647E-1,5.332803726E-1,-6.847711802E-1
2.574639704E1,7.558674812E-1,2.882118225E-1,-3.874144554E-1
2.576627646E1,3.912386894E-1,2.655191422E-1,-2.382450104E-1
2.578616047E1,1.671292782E-1,3.914422989E-1,-4.508996010E-1
2.580605344E1,4.248857498E-2,3.936243057E-1,-6.803040504E-1
2.582594157E1,1.081161499E-1,2.161550522E-1,-4.936935902E-1
2.584584594E1,1.330342293E-1,8.126735687E-2,-6.487822533E-2
2.586577547E1,1.045160294E-1,2.339839935E-1,-8.636474609E-3
2.588563204E1,1.217951775E-1,3.555698395E-1,-3.770449162E-1
2.590551902E1,2.167584896E-1,2.535982132E-1,-5.391781330E-1
2.592540527E1,2.864863873E-1,6.234550476E-2,-2.959940434E-1
2.594528235E1,3.626859188E-1,7.252311707E-2,-8.013749123E-2
2.596519480E1,3.916094303E-1,1.077766418E-1,-1.081681252E-1
2.598508886E1,5.912327766E-2,1.347732544E-1,-1.261372566E-1
2.600498376E1,-2.562117577E-1,1.862697601E-1,-2.100205421E-2
2.602489334E1,-3.488659859E-1,2.211055756E-1,-4.734826088E-2
2.604477730E1,-2.643294334E-1,2.947874069E-1,-9.584593773E-2
2.606464652E1,-2.775871754E-1,3.291540146E-1,-1.188528538E-1
2.608452485E1,-6.654088497E-1,1.245374680E-1,9.969830513E-2
2.610441714E1,-1.215838671E0,-2.167491913E-1,5.023906231E-1
2.612432100E1,-1.265337229E0,-6.929540634E-1,6.757929325E-1
2.614422542E1,-1.361596584E0,-1.200068474E0,2.616429329E-1
2.616411396E1,-2.001748085E0,-1.485570908E0,-4.157872200E-1
2.618398813E1,-1.887526989E0,-1.292449474E0,-7.884783745E-1
2.620389829E1,-7.468075752E-1,-1.407907486E0,-9.508416653E-1
2.622380172E1,1.079572439E0,-1.867412090E0,-1.352600336E0
2.624365912E1,3.612335205E0,-2.421147823E0,-2.279170036E0
2.626357001E1,5.497829914E0,-3.332507372E0,-3.037111759E0
2.628344985E1,6.004294395E0,-4.751183987E0,-3.179542065E0
2.630336063E1,5.548250675E0,-5.737145424E0,-3.029273748E0
2.632322193E1,4.443305492E0,-6.007544041E0,-2.831218958E0
2.634313251E1,3.331406355E0,-5.879659176E0,-2.468088865E0
2.636303542E1,3.590015411E0,-5.396129608E0,-1.979456425E0
2.638295475E1,4.173337936E0,-5.093648911E0,-1.937924623E0
2.640284412E1,4.708193302E0,-4.732603073E0,-2.601685286E0
2.642275131E1,5.495265961E0,-3.578381300E0,-3.397652149E0
2.644259433E1,5.681781769E0,-2.530901909E0,-4.059780121E0
2.646251115E1,5.172496796E0,-4.021450281E-1,-4.785847664E0
2.648239542E1,3.510305405E0,4.589384556E0,-6.322095394E0
2.650227792E1,1.360337257E0,1.054529667E1,-9.693214417E0
2.652219126E1,-6.761465073E-1,1.440344620E1,-1.483717537E1
2.654207980E1,-1.515533447E0,2.606774902E1,-2.231234932E1
2.656196240E1,8.682732582E-1,4.130344772E1,-3.277140045E1
2.658184506E1,9.790475845E0,4.908209991E1,-4.145315933E1
2.660176219E1,8.854201317E0,3.692929459E1,-4.662401199E1
2.662166235E1,-2.579627752E0,1.802945328E1,-5.330016327E1
2.664153172E1,-7.526170731E0,4.278938293E0,-5.919601440E1
2.666144704E1,-9.797115326E0,-7.641490459E0,-6.124517059E1
2.668132407E1,-1.761449242E1,-2.337765884E1,-5.896012878E1
2.670120245E1,-2.958778572E1,-3.670093918E1,-4.884081268E1
2.672108610E1,-3.045888710E1,-4.028484344E1,-3.034084511E1
2.674099334E1,-2.346900940E1,-3.827889252E1,-1.935484123E1
2.676089594E1,-1.593044567E1,-3.536971283E1,-1.426642132E1
2.678080912E1,-1.078091335E1,-2.988125801E1,-1.066392612E1
2.680070683E1,-7.558115959E0,-2.491411591E1,-7.712853432E0
2.682055318E1,-7.180109024E0,-2.204995346E1,-5.887131691E0
2.684044626E1,-6.524860382E0,-1.845734978E1,-4.820218563E0
2.686036360E1,-4.180350304E0,-1.421555996E1,-3.470487356E0
2.688025183E1,-1.557094693E0,-1.032020664E1,-2.709569216E0
2.690012886E1,-1.912459135E-1,-7.131187916E0,-2.461481094E0
2.692001225E1,-3.996545076E-1,-4.582347870E0,-1.805781841E0
2.693990641E1,-9.520407319E-1,-2.485051155E0,-6.343781948E-1
2.695981042E1,-7.969698906E-1,5.485153198E-2,-3.252124786E-2
2.697972756E1,4.004914165E-1,2.226535797E0,4.893918037E-1
2.699959938E1,1.155649424E0,3.327437401E0,1.690982103E0
2.701949480E1,2.148443937E0,3.874382973E0,2.112395763E0
2.703938771E1,3.110604763E0,3.626082420E0,1.587781429E0
2.705927969E1,3.344114780E0,3.727897644E0,1.368174314E0
2.707916917E1,3.999778271E0,4.605861664E0,1.387869596E0
2.709903324E1,3.789538383E0,3.964590073E0,1.316736460E0
2.711896829E1,1.409085155E0,3.058474541E0,1.940799713E0
2.713886803E1,-1.392602921E-3,2.655881882E0,1.114682674E0
2.715878235E1,4.783370495E-1,1.911238670E0,-7.166275978E-1
2.717862183E1,8.666856289E-1,1.802532196E0,-1.459699273E0
2.719852912E1,2.075824738E-1,1.956308365E0,-4.255478382E-1
2.721843480E1,-1.265742779E-1,2.243354797E0,1.661193371E-1
2.723829162E1,1.019766092E0,1.962269783E0,-7.520725727E-1
2.725817308E1,2.251053333E0,1.433991432E0,-1.943065286E0
2.727809011E1,2.550039291E0,1.079028130E0,-1.643937588E0
2.729797683E1,1.960582018E0,1.259682655E0,-6.417057514E-1
2.731785282E1,1.697797537E0,1.500874519E0,-5.454018116E-1
2.733775485E1,1.856073856E0,1.339126587E0,-1.349968672E0
2.735765803E1,1.923317671E0,1.107879162E0,-1.836654067E0
2.737753631E1,1.539226770E0,1.051006794E0,-9.687898159E-1
2.739746188E1,1.231626749E0,1.019364834E0,-4.171016216E-1
2.741733751E1,1.481960058E0,1.171389103E0,-7.686946392E-1
2.743721870E1,1.678017139E0,1.761555672E0,-1.188795805E0
2.745709620E1,1.757249355E0,1.725680351E0,-1.338422537E0
2.747700115E1,1.576167345E0,1.410180569E0,-1.093790770E0
2.749691943E1,1.279829264E0,1.136412144E0,-6.722586155E-1
2.751679688E1,1.285487652E0,9.306893349E-1,-6.084234715E-1
2.753670865E1,1.367131472E0,7.659316063E-1,-7.110490799E-1
2.755658412E1,1.255188704E0,8.600025177E-1,-5.870032310E-1
2.757648501E1,7.650568485E-1,1.040268898E0,-2.480864525E-1
2.759636678E1,2.095122337E-1,9.633321762E-1,-3.514289856E-2
2.761626162E1,1.099348068E-2,8.055562973E-1,-3.102874756E-2
2.763612480E1,3.239202499E-1,7.070302963E-1,-2.555568218E-1
2.765602329E1,5.753026009E-1,6.901550293E-1,-2.409985065E-1
2.767594219E1,4.968309402E-1,5.157089233E-1,-8.066916466E-2
2.769583313E1,4.701795578E-1,4.910507202E-1,-1.259446144E-1
2.771575860E1,5.967493057E-1,5.894508362E-1,-3.301653862E-1
2.773561485E1,6.182155609E-1,5.671987534E-1,-5.366029739E-1
2.775550495E1,4.736537933E-1,5.160064697E-1,-5.700178146E-1
2.777543709E1,3.051619530E-1,3.847064972E-1,-3.919615746E-1
2.779527402E1,2.854576111E-1,4.681091309E-1,-2.280297279E-1
2.781515896E1,2.955279350E-1,6.323738098E-1,-2.693469524E-1
2.783506589E1,1.269650459E-1,7.173080444E-1,-2.610373497E-1
2.785496698E1,-9.363698959E-2,4.529361725E-1,-6.156420708E-2
2.787489350E1,-7.792472839E-3,2.940235138E-1,1.220059395E-2
2.789479907E1,6.454944611E-3,3.419303894E-1,-1.404128075E-1
2.791464016E1,7.600402832E-2,5.179977417E-1,-3.165032864E-1
2.793452662E1,1.582107544E-1,4.214086533E-1,-2.985684872E-1
2.795442667E1,-1.067981720E-1,2.427749634E-1,-3.694295883E-2
2.797430214E1,-5.490198135E-1,1.136693954E-1,1.847379208E-1
2.799421428E1,-7.959876060E-1,-2.357435226E-2,2.967875004E-1
2.801411219E1,-6.718339920E-1,-5.735254288E-2,4.523527622E-1
2.803400407E1,-6.252708435E-1,1.293306351E-1,6.937916279E-1
2.805388990E1,-8.271093369E-1,2.273478508E-1,7.715573311E-1
2.807378844E1,-7.817831039E-1,1.574106216E-1,6.051106453E-1
2.809365152E1,-4.051909447E-1,3.197908401E-2,3.739438057E-1
2.811355443E1,-1.524209976E-1,-2.217111588E-1,-5.638360977E-3
2.813344797E1,-1.690931320E-1,-6.473393440E-1,-4.948892593E-1
2.815332855E1,-3.585977554E-1,-1.347788334E0,-9.351491928E-1
2.817322813E1,-2.680335045E-1,-2.042290688E0,-1.065985441E0
2.819311620E1,1.073122025E-1,-2.623784542E0,-8.078813553E-1
2.821299751E1,1.472601891E-1,-3.262242794E0,-7.088630199E-1
2.823290959E1,9.292535782E-1,-3.998333216E0,-8.572907448E-1
2.825282146E1,1.876770496E0,-5.372767448E0,-1.662652731E0
2.827268891E1,3.557674408E0,-6.576363564E0,-2.987736464E0
2.829259480E1,4.046570778E0,-7.459526539E0,-3.693456411E0
2.831247928E1,4.466619968E0,-7.809614182E0,-3.445727587E0
2.833235126E1,5.048550606E0,-7.744321823E0,-2.597417831E0
2.835226386E1,5.787821770E0,-7.720110416E0,-2.178555965E0
2.837215907E1,6.398680687E0,-7.498072147E0,-2.502467632E0
2.839206797E1,6.863060951E0,-6.745527267E0,-3.257920027E0
2.841193881E1,6.451148987E0,-5.756552219E0,-4.299500465E0
2.843182422E1,4.971169472E0,-5.010856152E0,-5.425433636E0
2.845176282E1,3.438948631E0,-3.060522556E0,-5.823279858E0
2.847161230E1,2.054238796E0,5.556529164E-1,-6.537950039E0
2.849149204E1,-2.603785515E0,7.808999538E0,-1.173130703E1
2.851142667E1,-1.258366394E1,1.752664185E1,-2.413117027E1
2.853129563E1,-2.184247208E1,2.907168961E1,-3.666329575E1
2.855119542E1,-1.944343758E1,4.816490936E1,-3.780941772E1
2.857109115E1,-1.884011841E1,3.825896835E1,-4.541827393E1
2.859097402E1,-1.925265121E1,2.120877075E1,-5.147660065E1
2.861087657E1,-1.738677216E1,1.238463497E1,-4.938867950E1
2.863077626E1,-1.696866989E1,2.617034912E-1,-5.287334061E1
2.865067110E1,-1.747257042E1,-1.538166237E1,-5.620418549E1
2.867053537E1,-2.501910400E1,-3.087495232E1,-5.351550674E1
2.869044995E1,-3.243416595E1,-4.404031372E1,-4.486148071E1
2.871032995E1,-2.417572212E1,-4.849460602E1,-3.044508743E1
2.873022469E1,-1.431727982E1,-4.514416504E1,-2.079372025E1
2.875011355E1,-4.852603912E0,-3.860047150E1,-1.196493626E1
2.877000949E1,-3.050137997E0,-3.012405777E1,-6.744547367E0
2.878987808E1,-4.074482918E0,-2.456243896E1,-5.721578598E0
2.880980329E1,-4.635470390E0,-2.145708466E1,-5.044166565E0
2.882972506E1,-5.513588428E0,-1.815542984E1,-3.634692430E0
2.884956881E1,-4.433713913E0,-1.445764160E1,-2.423498154E0
2.886948230E1,-1.955417633E0,-1.065002155E1,-1.877179265E0
2.888937771E1,-2.237318754E-1,-6.590430737E0,-1.758150101E0
2.890925969E1,9.239780903E-2,-3.319118023E0,-1.313155651E0
2.892915824E1,-2.185008526E-1,-1.183601379E0,-4.652285576E-1
2.894903527E1,-2.811236382E-1,6.655569077E-1,7.324705124E-1
2.896893214E1,-2.264138460E-1,2.104611397E0,2.093583107E0
2.898884589E1,2.501916885E-1,2.747695923E0,2.657901287E0
2.900872896E1,6.732997298E-1,2.987981796E0,2.702233791E0
2.902860678E1,1.639784813E0,2.608864784E0,1.538327694E0
2.904848350E1,3.463505030E0,1.934067726E0,-6.378650665E-3
2.906840490E1,3.801193476E0,1.807767868E0,7.498054504E-1
2.908827719E1,2.358527184E0,1.481497765E0,2.825749874E0
2.910819438E1,2.404423237E0,7.391061783E-1,2.568378448E0
2.912806318E1,2.966269970E0,1.574172974E-1,3.696014881E-1
2.914797344E1,2.303090811E0,4.316406250E-1,-5.242209435E-1
2.916784553E1,1.117774367E0,1.201738358E0,-1.359632015E-1
2.918774709E1,1.166286945E0,1.992568016E0,1.082758904E-1
2.920764584E1,1.694222450E0,1.984151840E0,-4.476628304E-1
2.922753620E1,1.817836642E0,1.824535370E0,-8.512933254E-1
2.924742740E1,1.165233135E0,1.638694763E0,-1.929855347E-1
2.926732834E1,1.061096430E0,1.209810257E0,2.210547924E-1
2.928721126E1,1.474995375E0,1.047011375E0,-7.691907883E-2
2.930709902E1,1.616159916E0,1.414748192E0,-6.001613140E-1
2.932699730E1,1.737186193E0,1.419942856E0,-1.218631029E0
2.934691480E1,1.761952043E0,1.215494156E0,-1.221215487E0
2.936678698E1,1.576102734E0,1.098725319E0,-7.826271057E-1
2.938666443E1,1.418362379E0,1.130504608E0,-7.626667023E-1
2.940657396E1,1.421459675E0,1.235503197E0,-9.595592022E-1
2.942647344E1,1.835305452E0,1.072324753E0,-8.912384510E-1
2.944635355E1,1.772544861E0,8.452396393E-1,-3.742489815E-1
2.946622922E1,1.523405552E0,7.694959641E-1,-6.142044067E-2
2.948613657E1,1.216486931E0,7.620620728E-1,-6.757307053E-2
2.950604803E1,1.299968958E0,6.831741333E-1,-5.486636162E-1
2.952592063E1,1.438881397E0,6.389112473E-1,-6.999912262E-1
2.954579271E1,1.280803680E0,6.125164032E-1,-4.560513496E-1
2.956576074E1,9.898891449E-1,6.736927032E-1,-2.734687328E-1
2.958560855E1,8.281133175E-1,6.613130569E-1,-2.179543972E-1
2.960547485E1,6.104269028E-1,6.217746735E-1,-1.463119984E-1
2.962540094E1,5.470852852E-1,7.057075500E-1,1.458671093E-1
2.964527990E1,4.771385193E-1,6.257400513E-1,3.082587719E-1
2.966516777E1,1.326007843E-1,6.834211349E-1,2.278609276E-1
2.968504391E1,-3.266143799E-2,7.118062973E-1,2.407336235E-1
2.970496652E1,5.086994171E-2,5.605802536E-1,2.595133781E-1
2.972484646E1,4.176087379E-1,4.058904648E-1,1.034388542E-1
2.974478350E1,6.422767639E-1,3.814182281E-1,-1.573481560E-1
2.976460370E1,4.599452019E-1,4.481439590E-1,-2.667660713E-1
2.978450756E1,1.403825283E-1,4.886484146E-1,-1.595392227E-1
2.980440485E1,2.357006073E-3,3.309335709E-1,3.668093681E-2
2.982431209E1,6.578111649E-2,1.314907074E-1,6.421923637E-2
2.984420532E1,4.065179825E-2,1.151924133E-1,1.210474968E-2
2.986410126E1,6.490230560E-3,1.672229767E-1,-7.649731636E-2
2.988395016E1,-3.701353073E-2,1.632385254E-1,-6.275486946E-2
2.990385100E1,3.069305420E-2,3.771018982E-2,5.520868301E-2
2.992376657E1,1.069197655E-1,-1.056070328E-1,2.381832600E-1
2.994368693E1,1.266002655E-1,-1.265707016E-1,2.941341400E-1
2.996352881E1,-3.226633072E-1,-1.156282425E-1,-5.802130699E-2
2.998345438E1,-1.267869949E0,-3.277006149E-1,-2.911531925E-1
3.000330902E1,-1.506283283E0,-6.866583824E-1,-5.606722832E-2
3.002322917E1,-1.606103897E0,-1.020514488E0,2.448995113E-1
3.004311969E1,-1.804107666E0,-1.448695183E0,1.028275490E-1
3.006298943E1,-1.533183575E0,-2.026828289E0,-2.225475311E-1
3.008290001E1,-9.090313911E-1,-2.778024673E0,-6.784133911E-1
3.010278688E1,-5.732784271E-1,-3.604893208E0,-1.009220362E0
3.012265100E1,-8.179135323E-1,-4.800132751E0,-4.754104614E-1
3.014256006E1,-8.522067070E-1,-5.671976566E0,-7.035648823E-1
3.016245063E1,2.373905182E-1,-6.291140079E0,-1.288199902E0
3.018234355E1,1.986914873E0,-6.773778439E0,-2.257721663E0
3.020222829E1,3.100146294E0,-7.172206879E0,-2.863611698E0
3.022211922E1,3.424787998E0,-7.296950340E0,-2.922992945E0
3.024203292E1,3.318777084E0,-6.992770195E0,-2.938522339E0
3.026190928E1,3.619754791E0,-5.399570465E0,-3.475209713E0
3.028183271E1,3.825717449E0,-3.837284803E0,-4.602497101E0
3.030173141E1,3.822099686E0,-3.078896999E0,-5.700216293E0
3.032157641E1,3.177377224E0,-1.940819025E0,-6.177570343E0
3.034151454E1,3.188418865E0,7.924568653E-1,-6.592206001E0
3.036141756E1,2.860810757E0,5.822376251E0,-7.984090328E0
3.038126318E1,3.950490952E-1,1.035780525E1,-9.731009483E0
3.040118756E1,-2.244981766E0,1.492091179E1,-1.175436783E1
3.042105454E1,-4.572885513E0,2.392988205E1,-1.728814125E1
3.044097672E1,-5.907222748E0,3.408951569E1,-2.587178993E1
3.046085126E1,-2.515695095E0,4.154239273E1,-3.200162506E1
3.048075454E1,-3.163633347E-1,3.426094055E1,-3.731666946E1
3.050064850E1,-2.295944691E0,2.402511024E1,-4.370438766E1
3.052054490E1,-2.139018536E0,1.546946526E1,-4.702365875E1
3.054044094E1,-3.237463474E0,4.071949959E0,-5.165840149E1
3.056032615E1,-8.005828857E0,-8.456013680E0,-5.464617157E1
3.058021261E1,-1.892425919E1,-2.102145386E1,-5.319499969E1
3.060008652E1,-2.837362099E1,-3.474344635E1,-4.854772949E1
3.061999938E1,-2.565596962E1,-4.338324738E1,-3.137441254E1
3.063987672E1,-1.460177708E1,-3.807007599E1,-1.464400005E1
3.065979735E1,-8.473711967E0,-3.307145309E1,-8.291100502E0
3.067966021E1,-8.398742676E0,-2.986300278E1,-5.118461132E0
3.069954006E1,-9.731224060E0,-2.444602776E1,-2.899736643E0
3.071946678E1,-8.711939812E0,-1.997299576E1,-2.610745430E0
3.073936146E1,-6.479814053E0,-1.523839569E1,-3.621572495E0
3.075924615E1,-4.123390198E0,-1.037164116E1,-2.711666346E0
3.077912829E1,-2.339210987E0,-5.869196892E0,-1.636343956E0
3.079901422E1,-1.278150916E0,-3.089678764E0,-1.511903882E0
3.081894990E1,5.383551121E-3,-1.190480232E0,-2.397253036E0
3.083881667E1,1.599755168E0,1.001522064E0,-3.543636084E0
3.085872167E1,1.895749688E0,2.482372284E0,-1.973582983E0
3.087859938E1,1.182967424E0,3.162684441E0,6.377968788E-1
3.089849318E1,1.762968421E0,2.777657509E0,1.129001617E0
3.091836808E1,3.054811478E0,2.077107430E0,2.631993294E-1
3.093825745E1,3.167194366E0,2.395169258E0,2.093591690E-1
3.095816949E1,2.682805538E0,2.829567909E0,5.477755070E-1
3.097804485E1,2.080556393E0,2.321411133E0,1.141517401E0
3.099796287E1,2.335443497E-1,1.586054802E0,2.538248062E0
3.101782844E1,-7.713620663E-1,1.796129227E0,2.609032393E0
3.103775532E1,3.898379803E-1,1.585165024E0,1.349857092E0
3.105760558E1,1.273518085E0,1.642843246E0,4.244022369E-1
3.107750693E1,1.221102476E0,1.743703842E0,1.446345806E0
3.109741594E1,6.202414036E-1,1.867590904E0,2.787098408E0
3.111728954E1,9.788532257E-1,1.435959816E0,2.379254818E0
3.113718131E1,1.749875069E0,1.055667877E0,1.412766457E0
3.115706339E1,2.257225275E0,1.179710388E0,4.842255116E-1
3.117696527E1,2.288876057E0,1.492101669E0,-5.871746540E-1
3.119687683E1,2.057076454E0,1.462547302E0,-1.235146880E0
3.121681553E1,1.546280384E0,1.367362022E0,-1.231105447E0
3.123665464E1,1.554081440E0,1.371130943E0,-1.050511003E0
3.125655782E1,1.747581720E0,1.109659195E0,-1.044282913E0
3.127644459E1,1.814296961E0,1.153952599E0,-9.873994589E-1
3.129633454E1,1.753830433E0,1.069728851E0,-7.154951096E-1
3.131622110E1,1.892592192E0,7.283105850E-1,-4.419041872E-1
3.133609412E1,2.052755833E0,6.491947174E-1,-3.084523678E-1
3.135601532E1,1.802244663E0,6.744728088E-1,-2.674930096E-1
3.137588688E1,1.483639479E0,6.735858917E-1,-2.010822296E-1
3.139577568E1,1.127950907E0,6.884241104E-1,-2.759733200E-1
3.141573438E1,9.941856861E-1,8.921623230E-1,-3.664480448E-1
3.143556370E1,9.635391235E-1,1.134567261E0,-3.615870476E-1
3.145547896E1,1.085537910E0,1.107055664E0,-2.709721327E-1
3.147537370E1,1.123800993E0,7.801179886E-1,-2.169735432E-1
3.149523266E1,1.053847551E0,5.334959030E-1,-2.322130203E-1
3.151513975E1,1.063114166E0,6.156368256E-1,-2.536134720E-1
3.153507021E1,7.974300385E-1,8.007059097E-1,-3.011095524E-1
3.155495016E1,6.453456879E-1,7.438869476E-1,-3.083429337E-1
3.157485136E1,5.408043861E-1,4.178562164E-1,-2.399411201E-1
3.159476047E1,1.650266647E-1,8.087921143E-2,-2.457304001E-1
3.161459600E1,-3.045701981E-2,9.293365479E-2,-2.430835962E-1
3.163448339E1,3.872156143E-2,7.744216919E-2,-1.515555382E-1
3.165439620E1,1.333174706E-1,-2.628993988E-2,-1.987266541E-2
3.167429657E1,2.818584442E-3,1.290559769E-1,7.994794846E-2
3.169415683E1,-1.712040901E-1,2.204513550E-1,-2.745294571E-2
3.171407167E1,-2.471146584E-1,-2.036285400E-2,-4.714560509E-2
3.173395876E1,-2.510623932E-1,-1.593112946E-1,1.699872017E-1
3.175385428E1,-3.724579811E-1,-6.218051910E-2,2.898890972E-1
3.177377162E1,-2.183256149E-1,3.392028809E-1,7.692313194E-2
3.179364032E1,3.022956848E-2,3.313875198E-1,-2.245292664E-1
3.181353303E1,1.907000542E-1,1.154537201E-1,-1.497180462E-1
3.183344178E1,1.271586418E-1,-4.531383514E-2,3.826069832E-2
3.185329657E1,-1.560001373E-1,-7.425498962E-2,8.342409134E-2
3.187318891E1,-2.444119453E-1,9.432506561E-2,-2.985477448E-3
3.189311105E1,-1.437926292E-1,1.455984116E-1,-2.512502670E-2
3.191298245E1,-1.080222130E-1,3.440952301E-2,7.492589951E-2
3.193291495E1,-8.087158203E-2,-6.352138519E-2,1.881899834E-1
3.195280053E1,-8.393239975E-2,-2.887725830E-3,1.689815521E-1
3.197268980E1,-4.918479919E-2,2.235794067E-2,4.938650131E-2
3.199255245E1,-7.261323929E-2,-5.559825897E-2,1.644825935E-2
3.201246011E1,-3.467359543E-1,-1.056623459E-1,-5.386924744E-2
3.203235167E1,-6.225724220E-1,7.670021057E-2,-1.602313519E-1
3.205223672E1,-7.247390747E-1,6.273174286E-2,-1.741967201E-1
3.207210475E1,-6.671633720E-1,-1.681699753E-1,6.344008446E-2
3.209201047E1,-8.900790215E-1,-5.733671188E-1,4.506204128E-1
3.211188475E1,-9.688601494E-1,-9.088926315E-1,6.013381481E-1
3.213177683E1,-4.676475525E-1,-1.211292267E0,3.792970181E-1
3.215170422E1,1.784815788E-1,-1.683828831E0,-1.554603577E-1
3.217156193E1,4.300360680E-1,-2.541015625E0,-3.645095825E-1
3.219148053E1,8.443121910E-1,-3.443100929E0,-5.690352917E-1
3.221139662E1,1.515032053E0,-4.465704918E0,-7.293043137E-1
3.223127365E1,2.488863707E0,-5.782100677E0,-1.158612490E0
3.225116553E1,3.760608435E0,-7.320843220E0,-1.703503966E0
3.227103235E1,4.971542835E0,-7.494275093E0,-1.934156895E0
3.229093896E1,5.806348801E0,-6.826236725E0,-2.285905123E0
3.231081980E1,6.375479698E0,-6.550725460E0,-2.520389080E0
3.233070959E1,6.643395424E0,-5.975218773E0,-2.519228458E0
3.235061553E1,6.059997559E0,-5.252115726E0,-2.778604984E0
3.237049381E1,5.883233070E0,-4.341090679E0,-2.872099161E0
3.239042178E1,4.911205769E0,-3.400585651E0,-2.896568775E0
3.241032178E1,3.583195210E0,-1.810719132E0,-3.410352707E0
3.243018318E1,3.360023022E0,9.237868786E-1,-3.984824419E0
3.245006959E1,3.839918613E0,4.581035614E0,-4.091240883E0
3.246998574E1,3.532272816E0,9.224035263E0,-6.427564144E0
3.248986553E1,1.077208042E0,1.752524567E1,-1.442230606E1
3.250975287E1,-1.262164593E0,2.986657906E1,-2.735959053E1
3.252966902E1,-1.560931206E0,3.473535156E1,-3.979867935E1
3.254955620E1,-6.910605431E-1,3.493646240E1,-4.918520355E1
3.256942225E1,1.611288548E0,3.105006599E1,-5.236962509E1
3.258933198E1,-3.058464527E-1,1.976804543E1,-5.439846802E1
3.260922021E1,-3.441263437E0,5.655255318E0,-5.627684784E1
3.262910928E1,-5.809983730E0,-9.482984543E0,-6.066695023E1
3.264899126E1,-1.349088478E1,-2.781868744E1,-6.405764771E1
3.266892672E1,-2.256154060E1,-4.483779907E1,-5.647975922E1
3.268880344E1,-2.158354187E1,-4.709799194E1,-3.677080154E1
3.270871266E1,-1.542615223E1,-4.350109100E1,-2.346102142E1
3.272857985E1,-9.507860184E0,-4.215130997E1,-1.657161713E1
3.274846282E1,-7.382801056E0,-3.592052460E1,-1.082545376E1
3.276833928E1,-5.224616528E0,-2.820847511E1,-7.589466572E0
3.278825042E1,-2.864932060E0,-2.326453972E1,-6.899628162E0
3.280814865E1,-1.140480757E0,-1.844581985E1,-6.895713329E0
3.282804865E1,-4.200506210E-2,-1.405106640E1,-5.748157024E0
3.284791475E1,1.216258526E0,-1.022953606E1,-3.683276415E0
3.286782844E1,1.871194363E0,-7.411916256E0,-2.576869726E0
3.288773063E1,2.224559069E0,-4.565437317E0,-2.455491304E0
3.290762001E1,1.422007084E0,-2.985056877E0,-1.173917770E0
3.292748568E1,-3.000560105E-1,-1.761552811E0,1.887958527E0
3.294738547E1,3.676240891E-2,-1.273975372E-1,2.583462715E0
3.296728855E1,2.281155825E0,1.136442184E0,-3.620066643E-1
3.298717240E1,2.905936241E0,1.196952820E0,-6.197702885E-1
3.300705376E1,5.186172724E-1,1.094554901E0,3.986596584E0
3.302697766E1,1.193459034E-1,8.109273911E-1,4.330852509E0
3.304685855E1,1.174973011E0,1.041140556E0,5.533525944E-1
3.306678860E1,1.067484260E0,1.899627686E0,-1.805641651E0
3.308664719E1,-6.541419029E-2,2.614838600E0,2.680661678E-1
3.310651610E1,-8.417146206E-1,3.897175789E0,3.113286018E0
3.312644157E1,-2.230858803E-1,4.740128517E0,3.074802637E0
3.314633011E1,7.672107220E-1,4.731446266E0,1.167497158E0
3.316620568E1,1.006438255E0,4.355052948E0,-7.444698811E-1
3.318609021E1,1.473203421E0,3.894281387E0,-2.063230753E0
3.320597516E1,1.685669422E0,3.168873787E0,-1.818679571E0
3.322586329E1,1.139919281E0,2.195103645E0,-1.156465530E0
3.324581620E1,1.311452627E0,1.494257927E0,-9.554030895E-1
3.326571162E1,2.385550022E0,8.177242279E-1,-8.296060562E-1
3.328556282E1,3.153798580E0,4.082984924E-1,1.623389721E-1
3.330547032E1,2.711865664E0,4.988756180E-1,6.568353176E-1
3.332532563E1,1.870555878E0,5.170516968E-1,-1.029489040E-1
3.334521860E1,1.415118217E0,5.101623535E-1,-9.824166298E-1
3.336511521E1,1.347339869E0,5.359983444E-1,-1.176467657E0
3.338500058E1,1.566225052E0,7.376737595E-1,-1.011611223E0
3.340493146E1,1.503952742E0,8.271741867E-1,-8.179135323E-1
3.342484224E1,1.459659815E0,1.199204445E0,-5.147159100E-1
3.344474605E1,1.417013884E0,1.223490715E0,-4.801228046E-1
3.346457756E1,1.263642073E0,1.033963203E0,-3.651971817E-1
3.348446292E1,9.781281948E-1,8.066768646E-1,-2.164249420E-1
3.350438428E1,9.237403870E-1,7.587842941E-1,-2.041404247E-1
3.352424902E1,9.230458736E-1,1.215299606E0,-1.848742962E-1
3.354418813E1,9.257385731E-1,1.535872459E0,-1.446588039E-1
3.356403495E1,1.094734430E0,1.265103340E0,-1.508524418E-1
3.358395855E1,1.067145109E0,7.866945267E-1,-1.000361443E-1
3.360383761E1,7.234244347E-1,4.322242737E-1,-6.805586815E-2
3.362375964E1,4.094042778E-1,4.296035767E-1,-1.900510788E-1
3.364364527E1,1.820425987E-1,6.737689972E-1,-3.557054996E-1
3.366349907E1,2.160305977E-1,6.599874496E-1,-4.169824123E-1
3.368343157E1,4.432787895E-1,4.167289734E-1,-3.306593895E-1
3.370331240E1,6.230840683E-1,2.271118164E-1,-1.655571461E-1
3.372319089E1,6.066870689E-1,1.698789597E-1,-8.858442307E-2
3.374307256E1,5.281007290E-1,3.510189056E-1,-1.235048771E-1
3.376298271E1,4.737410545E-1,3.734359741E-1,-1.914858818E-1
3.378288787E1,3.764901161E-1,2.011232376E-1,-1.620953083E-1
3.380280704E1,2.440123558E-1,1.056613922E-1,-1.197743416E-2
3.382265047E1,-5.160045624E-2,1.708211899E-1,3.699660301E-2
3.384252980E1,-1.131238937E-1,2.566900253E-1,-5.283665657E-2
3.386245636E1,-1.681947708E-1,8.599853516E-2,-6.375288963E-2
3.388234678E1,-3.722834587E-1,-9.753227234E-2,2.061846256E-1
3.390223813E1,-5.722851753E-1,-9.303283691E-2,4.698913097E-1
3.392210100E1,-6.284866333E-1,2.750396729E-3,6.470687389E-1
3.394201271E1,-9.014368057E-1,-3.214740753E-2,7.596962452E-1
3.396188422E1,-1.371379375E0,-2.915496826E-1,9.219169617E-1
3.398178865E1,-1.573603153E0,-7.479915619E-1,9.919097424E-1
3.400169037E1,-1.560182095E0,-7.105312347E-1,8.685081005E-1
3.402156417E1,-1.609586239E0,-3.852949142E-1,6.334390640E-1
3.404144797E1,-1.627562523E0,-2.855372429E-1,-8.023333549E-2
3.406133834E1,-1.782408714E0,-2.633490562E-1,-8.022205830E-1
3.408126146E1,-1.452315331E0,-7.192273140E-1,-1.048761010E0
3.410111985E1,-1.451778412E-2,-4.877681732E-1,-1.066009402E0
3.412103698E1,1.009037733E0,-7.106165886E-1,-1.264863968E0
3.414091042E1,7.729759216E-1,-1.401145458E0,-1.416336775E0
3.416082152E1,8.200902939E-1,-2.040608406E0,-1.562308788E0
3.418071553E1,1.996744156E0,-3.015974522E0,-1.954300404E0
3.420058318E1,3.542630911E0,-4.345380783E0,-2.447469234E0
3.422049563E1,5.028308868E0,-5.701640129E0,-2.768092632E0
3.424037813E1,5.942972660E0,-6.296077251E0,-2.804653645E0
3.426027188E1,6.611253262E0,-6.530961037E0,-2.755625725E0
3.428017271E1,7.296972275E0,-6.466773987E0,-2.631256104E0
3.430007433E1,7.798023701E0,-6.204421997E0,-2.628063202E0
3.431993620E1,7.719880104E0,-5.908408165E0,-2.692526102E0
3.433984657E1,7.473002911E0,-5.240881443E0,-2.857437611E0
3.435974542E1,7.097863197E0,-4.109428883E0,-3.681576729E0
3.437962162E1,6.468033791E0,-1.756765842E0,-5.948028088E0
3.439954021E1,2.107906818E0,4.191602707E0,-1.229076195E1
3.441941407E1,-4.550601959E0,1.384003067E1,-1.946701431E1
3.443930771E1,-7.256596565E0,2.483635712E1,-1.574591255E1
3.445920865E1,-6.705397606E0,3.157268143E1,-9.943570137E0
3.447908724E1,-8.574405670E0,3.210260773E1,-2.419353104E1
3.449900771E1,-1.056534863E1,3.553137970E1,-4.009747696E1
3.451888688E1,-9.229890823E0,3.069649315E1,-4.452090073E1
3.453878709E1,-8.024083138E0,2.046775818E1,-4.891061020E1
3.455867365E1,-1.054792023E1,7.200789452E0,-5.935963058E1
3.457857053E1,-1.849808884E1,-9.540157318E0,-6.345813751E1
3.459847074E1,-2.645291710E1,-2.756900406E1,-5.732649612E1
3.461835199E1,-2.503260803E1,-4.099822235E1,-4.543483353E1
3.463824251E1,-1.705341148E1,-4.541097260E1,-3.181011963E1
3.465811797E1,-1.140509987E1,-4.211479950E1,-2.100103188E1
3.467803146E1,-9.143286705E0,-3.835945129E1,-1.268996143E1
3.469790417E1,-8.556957245E0,-3.417289352E1,-7.244536400E0
3.471779745E1,-6.959416389E0,-2.792268562E1,-4.350979328E0
3.473769792E1,-4.845457077E0,-2.210999107E1,-3.162691593E0
3.475757433E1,-3.841234684E0,-1.741774750E1,-2.039666891E0
3.477747980E1,-4.366352558E0,-1.299315548E1,-6.574921608E-1
3.479736318E1,-3.829465389E0,-8.725705147E0,-1.609151363E-1
3.481727771E1,-1.472157001E0,-4.841137886E0,-1.204717398E0
3.483716313E1,5.246608257E-1,-1.826572895E0,-1.779180050E0
3.485705594E1,-3.112797737E-1,1.199588776E-1,3.535344601E-1
3.487694303E1,-1.555457592E0,2.160831451E0,2.243433237E0
3.489686558E1,-4.247407913E-1,3.782389641E0,1.018504381E0
3.491678667E1,1.945590734E0,3.596324921E0,-7.883238792E-1
3.493660224E1,2.095667839E0,3.363875389E0,4.023880959E-1
3.495651834E1,1.578200817E0,3.903006554E0,2.088676214E0
3.497642870E1,2.973034859E0,4.154861450E0,1.256484509E0
3.499628516E1,3.766751289E0,3.624436378E0,-1.131693125E0
3.501619803E1,3.795411587E0,2.988424301E0,-2.133861065E0
3.503607474E1,3.184395075E0,3.121743202E0,-1.347164631E0
3.505596964E1,2.402639389E0,3.284487724E0,-2.259445190E-1
3.507587626E1,1.836416125E0,2.627984047E0,-6.648087502E-2
3.509574360E1,2.008075237E0,1.882641792E0,-1.184153318E0
3.511565511E1,2.093850374E0,1.639065742E0,-2.209714413E0
3.513552626E1,2.006002665E0,1.794765472E0,-1.884567499E0
3.515541865E1,2.012846470E0,1.472376823E0,-6.002197266E-1
3.517534454E1,2.241689205E0,7.132387161E-1,-1.139645576E-1
3.519521834E1,2.654243946E0,8.136997223E-1,-3.308353424E-1
3.521512860E1,2.734579086E0,1.245224953E0,-1.048610926E0
3.523500532E1,2.482878208E0,1.308978081E0,-1.680574894E0
3.525492126E1,2.507162571E0,1.023663521E0,-1.685905933E0
3.527482047E1,2.072385788E0,5.166845322E-1,-1.383215427E0
3.529472527E1,1.669363737E0,5.677366257E-1,-1.172890902E0
3.531458568E1,1.709285975E0,5.694322586E-1,-1.197677135E0
3.533447787E1,1.674909830E0,4.745359421E-1,-1.024660110E0
3.535436115E1,1.429495573E0,2.195091248E-1,-6.588675976E-1
3.537425693E1,1.042097807E0,2.321033478E-1,-5.204918385E-1
3.539414063E1,8.898081779E-1,3.037500381E-1,-5.716309547E-1
3.541401787E1,9.345030785E-1,4.093170166E-1,-7.295513153E-1
3.543391417E1,7.558653355E-1,6.693420410E-1,-6.020195484E-1
3.545380922E1,5.079283714E-1,7.875795364E-1,-1.701169014E-1
3.547372136E1,2.280340195E-1,8.247146606E-1,2.046108246E-1
3.549361521E1,1.729097366E-1,1.057244301E0,1.354725361E-1
3.551350324E1,2.397103310E-1,1.202313423E0,-1.761786938E-1
3.553340766E1,2.850537300E-1,1.031619072E0,-2.236580849E-1
3.555327261E1,3.183436394E-1,8.796319962E-1,-6.777477264E-2
3.557317511E1,2.332878113E-2,8.300008774E-1,8.268022537E-2
3.559305448E1,-1.233520508E-1,1.024565697E0,4.915428162E-2
3.561296907E1,-2.104568481E-2,9.475126266E-1,-2.832810879E-1
3.563287355E1,1.165046692E-1,5.774602890E-1,-3.455388546E-1
3.565277756E1,3.847455978E-1,2.583074570E-1,-1.122720242E-1
3.567261475E1,4.418020248E-1,3.151798248E-2,-8.967113495E-2
3.569251152E1,4.594430923E-1,-8.520507812E-2,-1.876430511E-1
3.571243032E1,5.440878868E-1,1.792907715E-3,-3.313605785E-1
3.573232886E1,3.078832626E-1,1.065835953E-1,-4.209904671E-1
3.575220553E1,1.291723251E-1,9.505367279E-2,-4.220879078E-1
3.577209100E1,3.313541412E-3,-2.452564240E-2,-3.686118126E-1
3.579199074E1,-1.351099014E-1,3.176689148E-2,-3.272285461E-1
3.581187725E1,-1.156091690E-1,2.630472183E-1,-2.518312931E-1
3.583175282E1,-1.200776100E-1,3.704557419E-1,-7.362794876E-2
3.585173964E1,-5.150256157E-1,2.390985489E-1,-1.284146309E-2
3.587157563E1,-9.914355278E-1,2.880821228E-1,9.707999229E-2
3.589144844E1,-7.390294075E-1,3.842954636E-1,2.898981571E-1
3.591135105E1,1.047430038E-1,3.723630905E-1,3.768854141E-1
3.593124235E1,3.743906021E-1,2.219009399E-1,3.683185577E-1
3.595113782E1,3.598561287E-1,2.786855698E-1,3.001551628E-1
3.597102928E1,3.195428848E-1,3.111095428E-1,2.578577995E-1
3.599090839E1,3.851001263E-1,2.294940948E-1,2.564244270E-1
3.601081834E1,9.322452545E-2,1.250219345E-1,3.449635506E-1
3.603071198E1,-4.744770527E-1,-1.107139587E-1,5.061650276E-1
3.605057631E1,-1.089775801E0,-6.055912971E-1,7.260127068E-1
3.607049063E1,-1.456253767E0,-1.136946201E0,7.748503685E-1
3.609040329E1,-1.601102114E0,-1.883289814E0,8.259248734E-1
3.611024084E1,-2.474283934E0,-2.259577274E0,9.550337791E-1
3.613014495E1,-2.800853491E0,-2.102428913E0,9.254698753E-1
3.615002037E1,-1.849192619E0,-2.315767765E0,-1.340627670E-2
3.616992704E1,-3.474879265E-1,-2.481785774E0,-1.288760185E0
3.618980954E1,5.881767273E-1,-2.889974594E0,-2.097663403E0
3.620972917E1,-3.945841789E-1,-3.717599154E0,-2.318939924E0
3.622960865E1,-1.109488010E0,-4.220800400E0,-2.337870598E0
3.624951688E1,3.033351898E-2,-4.248314857E0,-3.153339386E0
3.626939282E1,1.951198578E0,-4.256062984E0,-4.456742287E0
3.628929948E1,3.796344519E0,-3.636096478E0,-5.469685555E0
3.630918876E1,4.678733826E0,-2.048331261E0,-6.013653755E0
3.632908209E1,5.113613605E0,-8.458805084E-1,-6.258147240E0
3.634898136E1,5.281482697E0,-7.457869053E-1,-6.589035988E0
3.636895120E1,5.222740650E0,-1.127832890E0,-7.149978161E0
3.638877313E1,4.940099239E0,-9.286682606E-1,-8.032555580E0
3.640866490E1,4.347300529E0,7.852326632E-1,-1.011155891E1
3.642856105E1,4.276661873E0,5.468483448E0,-9.015462875E0
3.644843959E1,4.232267857E0,1.413611698E1,-9.322407722E0
3.646831490E1,8.118991852E-1,1.985771942E1,-1.335665035E1
3.648822969E1,-4.235490799E0,2.586491394E1,-2.149102020E1
3.650813480E1,-1.100257778E1,3.479945374E1,-3.018373489E1
3.652801532E1,-1.849720955E1,4.059560013E1,-3.386401367E1
3.654789355E1,-2.225165367E1,3.248841858E1,-3.826039505E1
3.656777850E1,-2.179410553E1,1.800968552E1,-4.612277985E1
3.658769511E1,-2.063654518E1,1.113553047E1,-4.878102112E1
3.660758521E1,-2.319601059E1,2.641401291E-1,-4.995055771E1
3.662745287E1,-2.735478210E1,-1.535171509E1,-5.048575974E1
3.664735506E1,-2.926666069E1,-2.849112129E1,-4.306545258E1
3.666723719E1,-2.581577873E1,-3.248013687E1,-2.855804062E1
3.668712574E1,-2.049645996E1,-3.089993095E1,-1.817034721E1
3.670702318E1,-1.613799286E1,-3.053627586E1,-1.344977665E1
3.672693626E1,-1.229902267E1,-2.980642319E1,-1.020827866E1
3.674684964E1,-9.585029602E0,-2.628098679E1,-7.134712696E0
3.676675777E1,-6.869369984E0,-2.201718903E1,-5.666704178E0
3.678661834E1,-4.073105335E0,-1.887897110E1,-5.149625301E0
3.680647949E1,-2.378856659E0,-1.589897156E1,-4.218599796E0
3.682640907E1,-1.420734644E0,-1.282869148E1,-2.993170738E0
3.684628402E1,2.716644853E-2,-1.022979259E1,-2.052133799E0
3.686618449E1,1.066077948E0,-7.669655323E0,-1.801334620E0
3.688604495E1,1.436997890E0,-4.781875134E0,-1.857796669E0
3.690595198E1,2.057974339E0,-3.393370628E0,-1.093464851E0
3.692584308E1,2.703189135E0,-2.794374943E0,7.470407486E-1
3.694580766E1,2.769813538E0,-1.979416370E0,9.882259369E-1
3.696564303E1,3.012328386E0,1.114892960E-1,-4.471907616E-1
3.698551204E1,3.703255653E0,1.881986618E0,-1.330832720E0
3.700542574E1,1.609308720E-1,2.152379990E0,3.579174519E0
3.702530271E1,-3.437080145E0,3.009675980E0,6.707631588E0
3.704521537E1,-2.582372665E0,3.349685192E0,4.160247803E0
3.706509537E1,4.251735210E-1,3.743769169E0,-4.188942909E-1
3.708500376E1,1.973506212E0,3.054627895E0,-5.148086548E-1
3.710492105E1,9.521269798E-1,3.080974102E0,3.626199245E0
3.712477058E1,1.120211124E0,2.490748882E0,4.176577568E0
3.714466016E1,1.452161789E0,1.394276142E0,1.391681671E0
3.716457032E1,1.957619190E0,9.645204544E-1,-1.378741026E0
3.718445495E1,2.216765404E0,8.596324921E-1,-1.174957514E0
3.720433297E1,1.418771267E0,8.920469284E-1,4.182991982E-1
3.722423094E1,9.152913094E-1,8.211541176E-1,3.272323608E-1
3.724411615E1,5.152759552E-1,1.121847630E0,-6.206302643E-1
3.726403115E1,3.158140182E-1,1.604643345E0,-1.840492249E0
3.728390870E1,4.201145172E-1,1.634547710E0,-2.113789320E0
3.730379396E1,9.927084446E-1,1.354521275E0,-7.727644444E-1
3.732372620E1,1.640060186E0,1.256817818E0,-1.665685177E-1
3.734360646E1,1.832382917E0,1.001853943E0,-4.353966713E-1
3.736348027E1,2.103558779E0,1.280608177E0,-1.173704147E0
3.738337928E1,2.662000179E0,1.068753242E0,-1.123496294E0
3.740327657E1,2.771280766E0,7.226829529E-1,-1.993255615E-1
3.742313829E1,2.367076874E0,8.326683044E-1,6.920576096E-2
3.744307079E1,2.305469036E0,1.281066895E0,-3.856470585E-1
3.746297068E1,1.916172743E0,1.429139137E0,-6.393871307E-1
3.748286761E1,1.241740704E0,1.362530708E0,-2.050755024E-1
3.750278527E1,6.427021027E-1,1.201255798E0,3.451890945E-1
3.752263860E1,1.297430992E-1,9.360132217E-1,2.935714722E-1
3.754253136E1,-1.024246216E-2,8.579235077E-1,-4.129052162E-2
3.756240850E1,1.356210709E-1,8.994121552E-1,-2.737536430E-1
3.758227402E1,3.980255127E-2,8.404674530E-1,-2.824783325E-1
3.760219235E1,1.289691925E-1,7.648763657E-1,1.016402245E-2
3.762209053E1,6.011583805E-1,5.486850739E-1,-5.620431900E-2
3.764196318E1,1.019689560E0,3.092117310E-1,-3.103103638E-1
3.766185730E1,1.061747551E0,2.957849503E-1,-3.641440868E-1
3.768178646E1,7.546308041E-1,3.191490173E-1,-2.655951977E-1
3.770163131E1,3.541433811E-1,2.144432068E-1,-1.685061455E-1
3.772152474E1,3.082420826E-1,7.919502258E-2,-2.572970390E-1
3.774144943E1,6.268134117E-1,-1.288866997E-1,-4.461925030E-1
3.776131850E1,4.618449211E-1,-1.000695229E-1,-2.144131660E-1
3.778121532E1,1.411888599E-1,1.576557159E-1,2.718293667E-1
3.780110224E1,5.388259888E-4,3.109951019E-1,2.991161346E-1
3.782098620E1,1.758158207E-1,3.183197975E-1,1.051192284E-1
3.784088829E1,2.387900352E-1,2.070035934E-1,2.858495712E-2
3.786081131E1,1.266193390E-1,2.637705803E-1,2.031745911E-1
3.788070917E1,4.541397095E-3,3.577604294E-1,4.134435654E-1
3.790057990E1,-5.767440796E-2,3.549742699E-1,1.701083183E-1
3.792047891E1,5.234241486E-3,2.511949539E-1,-2.252335548E-1
3.794034881E1,4.494524002E-2,1.016321182E-1,-2.855105400E-1
3.796025011E1,-1.229186058E-1,-4.159545898E-2,-2.482891083E-2
3.798012777E1,-2.526769638E-1,-6.666898727E-2,9.632778168E-2
3.800005131E1,-1.677765846E-1,-8.937883377E-2,-2.948570251E-2
3.801994209E1,-4.150629044E-2,-6.065607071E-2,-5.850839615E-2
3.803982600E1,-4.078526497E-1,8.418560028E-2,5.123901367E-2
3.805971912E1,-9.428873062E-1,5.840301514E-2,2.097396851E-1
3.807957975E1,-1.023442745E0,-3.091902733E-1,1.052694321E-1
3.809951152E1,-9.108204842E-1,-7.192196846E-1,-1.195826530E-1
3.811936943E1,-1.115887642E0,-1.083413601E0,2.177143097E-2
3.813926277E1,-1.777292728E0,-1.577648640E0,5.215835571E-1
3.815914589E1,-2.120185852E0,-2.397443771E0,7.916760445E-1
3.817907678E1,-2.359951019E0,-1.974594116E0,1.619882107E0
3.819896839E1,-2.002487659E0,-1.556681156E0,1.425827980E0
3.821884178E1,-6.976962090E-1,-1.885418892E0,-5.314974785E-1
3.823876063E1,1.270465851E-1,-2.198009014E0,-1.944133043E0
3.825862495E1,7.954878807E-1,-2.428194046E0,-2.492667198E0
3.827850370E1,1.826984406E0,-2.752704859E0,-2.833372593E0
3.829841589E1,2.856040716E0,-3.081225634E0,-3.347457409E0
3.831829766E1,3.706678629E0,-3.372316837E0,-3.927488565E0
3.833817954E1,4.464953423E0,-3.577198267E0,-4.400283813E0
3.835811021E1,5.272126198E0,-3.717333555E0,-4.694947243E0
3.837800428E1,5.969919682E0,-3.881815910E0,-4.689037323E0
3.839789318E1,6.638835430E0,-3.566223860E0,-4.563073158E0
3.841776756E1,7.432753086E0,-2.238698959E0,-4.869560719E0
3.843770162E1,7.993483067E0,-4.570550919E-1,-5.948068619E0
3.845755219E1,7.979472160E0,7.789410353E-1,-6.856273174E0
3.847746282E1,6.986957073E0,2.210938454E0,-7.152557850E0
3.849735209E1,5.455130100E0,5.948006630E0,-7.324378014E0
3.851723782E1,3.795612335E0,1.388508224E1,-9.280350685E0
3.853711766E1,-2.836617470E0,1.754180145E1,-1.415361023E1
3.855702730E1,-1.038209820E1,2.364728355E1,-1.985585213E1
3.857691584E1,-1.145104027E1,3.538225555E1,-2.810918999E1
3.859683922E1,-9.675277710E0,3.688537216E1,-3.960478592E1
3.861674308E1,-1.481828976E1,2.818996239E1,-4.937325668E1
3.863657422E1,-2.079787827E1,1.913400650E1,-5.340702820E1
3.865646808E1,-2.103455734E1,6.155146122E0,-5.396343994E1
3.867640178E1,-2.432208633E1,-8.273808479E0,-5.276802063E1
3.869628594E1,-3.368254852E1,-2.345437622E1,-4.986682129E1
3.871617672E1,-3.810261536E1,-3.643000412E1,-4.014223862E1
3.873603521E1,-2.915275764E1,-3.809154892E1,-2.510997009E1
3.875595917E1,-1.917490959E1,-3.735701752E1,-1.676801300E1
3.877585063E1,-1.213024902E1,-3.585393143E1,-1.261674213E1
3.879578266E1,-9.114383698E0,-3.103529739E1,-9.607020378E0
3.881561829E1,-7.543853760E0,-2.598315048E1,-7.799570084E0
3.883552813E1,-6.010951996E0,-2.245850754E1,-6.833531380E0
3.885542438E1,-4.349061966E0,-1.846936035E1,-5.852039814E0
3.887528183E1,-3.007184982E0,-1.404232788E1,-4.037425995E0
3.889519068E1,-2.398138762E0,-1.046170330E1,-1.988291502E0
3.891506308E1,-1.440070033E0,-7.407316685E0,-1.066337347E0
3.893498813E1,4.170415103E-1,-4.616632462E0,-1.942791939E0
3.895485724E1,1.948508978E0,-2.191451550E0,-2.300421953E0
3.897479256E1,2.528678656E0,-1.950273514E-1,-8.073649406E-1
3.899463657E1,2.579538345E0,1.394011497E0,7.325620651E-1
3.901456224E1,2.585653305E0,1.672178268E0,1.681104183E0
3.903444605E1,1.034933329E0,1.198682785E0,2.712912560E0
3.905431620E1,1.911116838E-1,1.767625809E0,2.269443989E0
3.907425714E1,1.640849590E0,2.834946632E0,3.138587475E-1
3.909411824E1,2.269473314E0,2.840139389E0,-5.829577446E-1
3.911401626E1,4.196915627E-1,2.404551506E0,1.781673431E0
3.913389167E1,-5.891821384E-1,2.473797798E0,3.053612232E0
3.915378865E1,7.702445984E-1,2.811516762E0,1.511580229E0
3.917368771E1,1.545108676E0,3.481931686E0,-4.663295746E-1
3.919358574E1,1.363681793E0,3.566267967E0,-4.771649837E-1
3.921347271E1,1.289966583E0,3.477716446E0,1.483035088E-2
3.923337292E1,1.480871916E0,2.841315269E0,-9.532999992E-2
3.925323454E1,1.686689377E0,2.381968498E0,-3.449308872E-1
3.927315469E1,2.002478600E0,1.700239182E0,-1.789174080E-1
3.929304985E1,2.360292912E0,8.778467178E-1,-2.521355152E-1
3.931293032E1,2.266520262E0,1.637697220E-1,-4.822614193E-1
3.933283261E1,1.854771137E0,1.135473251E-1,-8.057913780E-1
3.935274756E1,1.301846743E0,2.913064957E-1,-1.217808008E0
3.937259797E1,1.379063845E0,6.630868912E-1,-1.647787929E0
3.939250230E1,1.840082169E0,5.638599396E-1,-2.042280674E0
3.941243672E1,1.899534225E0,5.096902847E-1,-1.866860986E0
3.943226422E1,1.836777210E0,1.038225174E0,-1.274928570E0
3.945217506E1,1.672117949E0,1.254244804E0,-1.039738178E0
3.947206865E1,1.627570152E0,1.246519089E0,-1.103751183E0
3.949194006E1,1.630199671E0,1.001915932E0,-8.355832100E-1
3.951184454E1,1.222794771E0,8.249101639E-1,-2.258474827E-1
3.953176297E1,8.516285419E-1,8.737697601E-1,-4.983115196E-2
3.955165240E1,8.897817135E-1,1.184950829E0,-2.597455978E-1
3.957155553E1,1.319307327E0,1.160146713E0,-5.859885216E-1
3.959144396E1,1.653906107E0,8.301153183E-1,-5.425930023E-1
3.961134074E1,1.490452766E0,5.771455765E-1,-2.194404602E-1
3.963119547E1,9.827036858E-1,6.388988495E-1,-2.570972443E-1
3.965108167E1,7.129688263E-1,8.533973694E-1,-5.974435806E-1
3.967098079E1,3.219091892E-1,7.887620926E-1,-8.727719784E-1
3.969089261E1,1.109905243E-1,7.269229889E-1,-6.750195026E-1
3.971079344E1,3.680133820E-2,5.941677094E-1,-4.568326473E-1
3.973068860E1,-1.404519081E-1,5.541467667E-1,-4.830783606E-1
3.975056740E1,2.682647705E-1,5.842676163E-1,-5.210005045E-1
3.977044167E1,5.289511681E-1,2.307949066E-1,-3.641570807E-1
3.979032610E1,9.219825268E-1,-2.083320618E-1,1.274005175E-1
3.981023553E1,1.005362511E0,-4.073696136E-1,2.141767740E-1
3.983012761E1,3.961296082E-1,-4.410667419E-1,1.621669531E-1
3.985003568E1,-2.307777405E-1,-4.054689407E-1,2.997324467E-1
3.986992063E1,-8.920073509E-1,-4.098367691E-1,4.730166197E-1
3.988982355E1,-1.399784088E0,-1.624107361E-1,3.430695534E-1
3.990970574E1,-1.076951504E0,9.035396576E-2,1.038433313E-1
3.992960094E1,-5.963406563E-1,2.099075317E-1,-1.670451164E-1
3.994947027E1,-3.748364449E-1,2.356214523E-1,-3.449126482E-1
3.996937428E1,-2.100353241E-1,2.946615219E-1,-4.446995854E-1
3.998928324E1,-3.115739822E-1,2.436943054E-1,-3.276212215E-1
4.000914506E1,-4.086747169E-1,8.039188385E-2,-5.411624908E-3
4.002904761E1,-4.699001312E-1,-2.872695923E-1,3.725113869E-1
4.004895074E1,-5.620412827E-1,-4.649686813E-1,6.944843531E-1
4.006885547E1,-4.679489136E-1,-4.688167572E-1,6.514594555E-1
4.008873667E1,-3.447561264E-1,-6.601171494E-1,3.233444691E-1
4.010860219E1,-5.564913750E-1,-1.117167473E0,4.375400543E-1
4.012852219E1,-8.461031914E-1,-1.475354195E0,7.153745890E-1
4.014839792E1,-7.483558655E-1,-1.549832821E0,2.802821398E-1
4.016827516E1,-7.814741135E-1,-2.056784630E0,-3.071037531E-1
4.018817506E1,-6.468987465E-1,-2.906403542E0,-5.322641134E-1
4.020807214E1,3.967561722E-1,-3.511836052E0,-7.326812744E-1
4.022796511E1,4.421596527E-1,-4.296623707E0,-5.443806648E-1
4.024786032E1,-4.290370941E-1,-5.528786659E0,3.383271694E-1
4.026774938E1,9.293260574E-1,-5.661643982E0,-1.380206943E-1
4.028763110E1,2.379477501E0,-5.850079536E0,-1.093614459E0
4.030752454E1,2.972903252E0,-6.569817543E0,-1.609568834E0
4.032744115E1,3.306911469E0,-6.837198257E0,-1.542739749E0
4.034732902E1,4.073832512E0,-6.515502930E0,-1.590605736E0
4.036723308E1,4.477827549E0,-6.199368477E0,-2.552320004E0
4.038714839E1,4.247489929E0,-5.825019836E0,-3.150655270E0
4.040701136E1,3.997803688E0,-4.912646294E0,-3.025737286E0
4.042691563E1,3.414419651E0,-3.683465004E0,-2.842965364E0
4.044681771E1,3.095580578E0,-2.390483379E0,-3.233427525E0
4.046671396E1,1.518727303E0,1.868602037E-1,-5.809252262E0
4.048659011E1,-5.923471451E-1,5.305969715E0,-8.779100418E0
4.050647636E1,-6.189662933E0,1.014957142E1,-1.252428818E1
4.052638084E1,-1.054747963E1,1.926099586E1,-1.709681320E1
4.054626511E1,-8.868622780E0,3.205893326E1,-2.233869934E1
