"Time (s)","Gyroscope x (rad/s)","Gyroscope y (rad/s)","Gyroscope z (rad/s)"
4.565313100E-2,-2.401368141E0,-1.239664912E0,-5.636414289E-1
6.559844300E-2,-2.393378973E0,-6.603113413E-1,-2.230331600E-1
8.543516200E-2,-2.208960295E0,-2.869471535E-2,8.129059523E-2
1.053303700E-1,-1.941919804E0,4.632432163E-1,2.369477749E-1
1.252477660E-1,-1.689792514E0,7.004572749E-1,2.246975899E-1
1.451208390E-1,-1.466426373E0,7.761554122E-1,1.452711523E-1
1.650103700E-1,-1.239398599E0,7.340121269E-1,1.111836955E-1
1.849019850E-1,-9.968583584E-1,4.435364008E-1,5.359453708E-2
2.048429220E-1,-7.490585446E-1,-1.278279573E-1,-7.856093347E-2
2.247081310E-1,-5.230293870E-1,-6.858769059E-1,-1.953371018E-1
2.445760990E-1,-2.773600519E-1,-9.086437821E-1,-2.976660430E-1
2.644641200E-1,-8.548495173E-2,-8.489907384E-1,-3.067205250E-1
2.843739640E-1,-1.404776052E-2,-6.234942079E-1,-2.523270845E-1
3.042435470E-1,-1.138467807E-2,-2.946700752E-1,-2.704360485E-1
3.241500580E-1,8.828118443E-2,1.839524209E-1,-3.493298590E-1
3.440570890E-1,3.910736740E-1,8.448629379E-1,-4.591154456E-1
3.639368810E-1,8.483915329E-1,1.542057991E0,-4.159734845E-1
3.838365160E-1,1.318492174E0,2.172076702E0,-2.107829899E-1
4.037482350E-1,1.743253827E0,2.628329277E0,7.543181628E-2
4.236316720E-1,2.182995319E0,2.908685446E0,3.318201005E-1
4.435281310E-1,2.688248634E0,3.059482336E0,3.787569106E-1
4.634201100E-1,3.154088497E0,2.972066641E0,3.211677670E-1
4.832733910E-1,3.381182671E0,2.488650560E0,4.410730600E-1
5.031750580E-1,3.247362852E0,1.732867837E0,7.582461834E-1
5.230900060E-1,2.789512396E0,9.914656281E-1,1.065765619E0
5.429951620E-1,2.254432440E0,3.742296696E-1,1.219824910E0
5.628918810E-1,1.764025927E0,-1.752974093E-1,1.275749683E0
5.827827140E-1,1.292860031E0,-6.464632750E-1,1.321621299E0
6.026614640E-1,8.941965699E-1,-9.625046253E-1,1.257640719E0
6.225506310E-1,5.051201582E-1,-1.438996673E0,9.708933234E-1
6.424475060E-1,-1.169093251E-1,-2.880789518E0,1.298252791E-1
6.623058910E-1,-5.960644484E-1,-3.434577465E0,-4.665720761E-1
6.822299020E-1,-3.263607621E-1,-2.467146158E0,-6.456643939E-1
7.021396930E-1,-5.598465204E-1,-8.111083508E-1,-8.578454852E-1
7.219935990E-1,-9.035838842E-1,9.957265854E-1,-1.135005832E0
7.418990680E-1,-1.048056126E0,2.154500484E0,-1.303445816E0
7.618019850E-1,-9.782168269E-1,2.339984179E0,-1.360435724E0
7.816907350E-1,-6.456643939E-1,2.019615173E0,-1.593388915E0
8.015824540E-1,-1.280942708E-1,1.782467723E0,-2.175938129E0
8.214505790E-1,3.446694613E-1,1.704106569E0,-2.940242767E0
8.413309950E-1,7.300174832E-1,1.601777554E0,-3.447693348E0
8.612274540E-1,1.111637235E0,1.424815774E0,-3.666199207E0
8.811321930E-1,1.516758680E0,1.376281023E0,-3.829845667E0
9.010228700E-1,2.018283606E0,1.731269956E0,-4.043025494E0
9.209275060E-1,2.547038794E0,2.738647461E0,-4.325511932E0
9.408306830E-1,3.020335197E0,4.579103947E0,-4.687957287E0
9.607264640E-1,3.441967726E0,6.897117615E0,-4.849473476E0
9.805938600E-1,3.827315569E0,9.012070656E0,-4.396416187E0
1.000501308E0,4.159335613E0,1.058175850E1,-3.203555107E0
1.020364797E0,4.293687820E0,1.154646015E1,-1.874277472E0
1.040278860E0,3.670593262E0,1.159605980E1,-9.463263750E-1
1.060165110E0,1.599913478E0,1.055932236E1,-5.619769692E-1
1.080065943E0,-2.706757069E0,8.051564217E0,-3.759606779E-1
1.099926412E0,-6.828942776E0,4.767250538E0,1.930734841E-3
1.119824745E0,-9.355408669E0,2.158761263E0,-2.075872868E-1
1.139739485E0,-1.135997772E1,-1.567490339E0,9.256209135E-1
1.159618235E0,-1.161689854E1,-3.836436749E0,3.813400984E0
1.179523027E0,-1.062017345E1,-2.130332947E0,6.003986359E0
1.199398287E0,-9.613927841E0,4.685693681E-1,7.100377083E0
1.219285839E0,-8.915135384E0,1.246256113E0,7.201108456E0
1.239176204E0,-8.381053925E0,4.942015409E-1,6.599384785E0
1.259078443E0,-7.427536964E0,-8.042509109E-2,5.369772911E0
1.278990474E0,-6.078485966E0,1.722348630E-1,3.602884293E0
1.298904224E0,-4.887754917E0,1.956699938E-1,2.142449856E0
1.318812870E0,-3.824985504E0,-2.227002829E-1,1.190464497E0
1.338637870E0,-2.781922579E0,-3.677051365E-1,1.404775977E-1
1.358542089E0,-2.012225151E0,-4.140427709E-1,-8.956612349E-1
1.378460370E0,-1.373684525E0,-7.045184970E-1,-1.821481943E0
1.398310474E0,-8.290175796E-1,-1.247654200E0,-2.551166534E0
1.418223443E0,-6.237605214E-1,-1.718820095E0,-2.933851480E0
1.438116464E0,-6.808170676E-1,-2.136191607E0,-3.149694204E0
1.458015735E0,-8.790835738E-1,-2.613749027E0,-3.314938545E0
1.477906464E0,-1.040066838E0,-2.945835352E0,-3.365071058E0
1.497779849E0,-1.045925617E0,-3.145167112E0,-3.296297073E0
1.517692506E0,-8.567136526E-1,-3.227256536E0,-3.227522850E0
1.537557454E0,-5.011921525E-1,-3.001227379E0,-3.012212753E0
1.557479902E0,-2.752295732E-1,-2.501832962E0,-2.700964928E0
1.577372089E0,-2.981320918E-1,-1.891520977E0,-2.524535656E0
1.597265110E0,-3.055887222E-1,-1.244458437E0,-2.444576740E0
1.617153599E0,-1.110505462E-1,-7.296180725E-1,-2.408292055E0
1.637038860E0,8.615072072E-2,-5.728956461E-1,-2.261755943E0
1.656927245E0,2.178401500E-1,-6.906704903E-1,-1.973943353E0
1.676849068E0,2.967339754E-1,-8.175663352E-1,-1.735131383E0
1.696745787E0,3.393433094E-1,-8.756215572E-1,-1.591258407E0
1.716573652E0,4.198349714E-1,-9.246888161E-1,-1.470221281E0
1.736479172E0,5.306857824E-1,-9.933964014E-1,-1.285802841E0
1.756394902E0,6.212971807E-1,-1.042996287E0,-1.056111932E0
1.776273860E0,6.516563296E-1,-1.007310987E0,-8.514540792E-1
1.796152245E0,5.967968106E-1,-8.782846332E-1,-6.936664581E-1
1.816071620E0,4.928700030E-1,-6.906704903E-1,-5.647066832E-1
1.835961464E0,4.086500108E-1,-5.041215420E-1,-4.431369305E-1
1.855827558E0,3.686372042E-1,-3.399424851E-1,-3.035248220E-1
1.875781099E0,3.393433094E-1,-1.934063733E-1,-1.681070924E-1
1.895622402E0,2.962013483E-1,-6.651048362E-2,-6.045197323E-2
1.915512818E0,2.513949871E-1,3.954677656E-2,2.749632671E-2
1.935406204E0,2.332860380E-1,1.216362938E-1,1.149120107E-1
1.955326047E0,2.332860380E-1,1.972678453E-1,1.734998226E-1
1.975201672E0,2.231663167E-1,2.644441128E-1,2.087190896E-1
1.995076568E0,2.119813710E-1,3.060547709E-1,2.284259051E-1
2.014972037E0,1.943384558E-1,3.342834413E-1,2.145778835E-1
2.034878547E0,1.671750098E-1,3.598490357E-1,1.842187345E-1
2.054816152E0,1.480008066E-1,3.971987665E-1,1.532603949E-1
2.074659224E0,1.266961545E-1,4.195686579E-1,1.266295761E-1
2.094533808E0,8.774857223E-2,4.046553969E-1,9.946613014E-2
2.114422558E0,4.300878197E-2,3.651751876E-1,7.063826174E-2
2.134306464E0,-4.460663069E-3,2.916075289E-1,4.667052254E-2
2.154231672E0,-5.399399996E-2,2.015953511E-1,2.802894451E-2
2.174102141E0,-7.529865950E-2,1.381474137E-1,2.995967865E-3
2.194013391E0,-7.476603985E-2,1.125818118E-1,-2.796236612E-2
2.213888704E0,-7.583127916E-2,1.050586104E-1,-6.631075591E-2
2.233785839E0,-7.636389136E-2,9.866721183E-2,-1.095192730E-1
2.253666881E0,-7.050511241E-2,7.576470077E-2,-1.393457949E-1
2.273585422E0,-8.335448056E-2,3.315537795E-2,-1.574547589E-1
2.293462402E0,-1.190397888E-1,-1.591191813E-2,-1.867486686E-1
2.313337870E0,-1.488663107E-1,-7.077141851E-2,-2.299571782E-1
2.333228131E0,-1.680405140E-1,-1.182408631E-1,-2.736317217E-1
2.353145422E0,-1.803572625E-1,-1.379476786E-1,-3.482646346E-1
2.373045683E0,-2.048576325E-1,-1.475347728E-1,-4.660394490E-1
2.392967558E0,-2.394776940E-1,-1.816888005E-1,-5.865439177E-1
2.412828027E0,-2.794905007E-1,-2.519941926E-1,-7.021883130E-1
2.432762141E0,-3.109148741E-1,-3.442034125E-1,-8.268871307E-1
2.452629172E0,-3.226324618E-1,-4.209667742E-1,-9.836095572E-1
2.472484224E0,-2.853493094E-1,-4.257603288E-1,-1.176017284E0
2.492402297E0,-1.878138930E-1,-3.122464418E-1,-1.393458009E0
2.512288443E0,-3.588503599E-2,-5.852124095E-2,-1.645052671E0
2.532190422E0,1.314896941E-1,2.623136342E-1,-1.933930516E0
2.552069849E0,2.940708995E-1,5.202997327E-1,-2.242049217E0
2.571979016E0,4.859459996E-1,6.983268261E-1,-2.553829670E0
2.591826412E0,7.491917014E-1,8.411346078E-1,-2.876328945E0
2.611767870E0,1.064767003E0,8.800821900E-1,-3.245631933E0
2.631643547E0,1.379743099E0,8.790169954E-1,-3.627850771E0
2.651515370E0,1.698514104E0,9.696283340E-1,-3.998285532E0
2.671445683E0,2.050307274E0,1.171090603E0,-4.298348427E0
2.691309277E0,2.423937798E0,1.560166955E0,-4.551008224E0
2.711207089E0,2.876395464E0,2.274405718E0,-4.811591148E0
2.731105735E0,3.461141825E0,3.403286457E0,-5.142611980E0
2.750972610E0,4.126313210E0,4.928234100E0,-5.451729298E0
2.770877037E0,4.851204395E0,7.015424728E0,-5.630821705E0
2.790800995E0,5.696533203E0,9.641024590E0,-5.417109489E0
2.810698443E0,6.181014538E0,1.163121319E1,-4.372448444E0
2.830540995E0,5.237617493E0,1.172501945E1,-2.411487818E0
2.850459068E0,9.645684958E-1,1.018941975E1,-3.312208951E-1
2.870324016E0,-5.661180973E0,7.257965088E0,1.211303115E0
2.890243079E0,-9.757267952E0,3.920323849E0,1.092396498E0
2.910139329E0,-1.238979149E1,-8.218272924E-1,1.248053670E0
2.930019068E0,-1.346694183E1,-3.838034630E0,4.330371857E0
2.949898287E0,-1.223626518E1,-2.760285139E-1,6.971417427E0
2.969785266E0,-1.123740959E1,5.110521793E0,7.351439476E0
2.989727870E0,-1.038089561E1,7.100177765E0,5.912842274E0
3.009569120E0,-9.614459991E0,5.402062893E0,3.813933611E0
3.029468183E0,-7.954694271E0,2.331462145E0,2.122743130E0
3.049378235E0,-5.454925060E0,1.557237506E-1,9.911327362E-1
3.069266672E0,-3.684774160E0,-8.239577413E-1,2.683721483E-1
3.089167454E0,-2.180665255E0,-1.259371758E0,-1.304910425E-2
3.109046047E0,-9.814125299E-1,-1.413431048E0,-3.189707100E-1
3.128963443E0,-1.787594110E-1,-1.418224573E0,-8.087781668E-1
3.148866933E0,3.244300187E-1,-1.377213120E0,-1.299650908E0
3.168772870E0,5.578492284E-1,-1.420355082E0,-1.620552301E0
3.188626152E0,6.218297482E-1,-1.654906034E0,-1.802840352E0
3.208497037E0,6.106448174E-1,-2.114354372E0,-2.037324667E0
3.228404016E0,4.523245692E-1,-2.783254147E0,-2.355563164E0
3.248307714E0,1.117828935E-1,-3.567798376E0,-2.560220957E0
3.268200631E0,-2.912080884E-1,-4.279374123E0,-2.627929926E0
3.288053704E0,-5.342143774E-1,-4.703070164E0,-2.690845251E0
3.307978547E0,-5.875425935E-1,-4.896077156E0,-2.674800158E0
3.327872089E0,-5.832816362E-1,-4.843814373E0,-2.389650583E0
3.347768339E0,-5.752924085E-1,-4.305472374E0,-1.987258792E0
3.367627402E0,-5.630422235E-1,-3.372727394E0,-1.873744845E0
3.387525891E0,-5.267577171E-1,-2.373339176E0,-1.910495400E0
3.407447818E0,-3.754280508E-1,-1.458703518E0,-1.866820931E0
3.427303495E0,-1.776941866E-1,-7.242918611E-1,-1.746849060E0
3.447226672E0,5.366111174E-2,-2.296242863E-1,-1.692522168E0
3.467102141E0,1.997311860E-1,2.197043039E-3,-1.712228894E0
3.487016724E0,2.833519876E-1,-9.533835202E-2,-1.657835484E0
3.506908860E0,3.324192762E-1,-4.695014656E-1,-1.507038474E0
3.526786620E0,3.686372042E-1,-9.001219273E-1,-1.369490266E0
3.546686152E0,3.953346014E-1,-1.258839130E0,-1.237867355E0
3.566556933E0,3.979976773E-1,-1.508836031E0,-1.059840322E0
3.586450943E0,3.633110523E-1,-1.589327693E0,-8.764870763E-1
3.606363860E0,3.441368341E-1,-1.457638264E0,-7.714950442E-1
3.626226099E0,3.361476064E-1,-1.197055578E0,-6.910033226E-1
3.646126933E0,3.201690912E-1,-9.401347041E-1,-5.406723619E-1
3.666033547E0,2.801562846E-1,-7.050511241E-1,-3.296230435E-1
3.685909329E0,2.284924835E-1,-4.476641715E-1,-1.164432839E-1
3.705815214E0,1.954036802E-1,-1.416759938E-1,3.335510939E-2
3.725774485E0,1.570552886E-1,1.589194536E-1,1.415428370E-1
3.745599068E0,1.005313694E-1,3.897421360E-1,2.199040353E-1
3.765471516E0,3.235645220E-2,5.139083862E-1,2.635785937E-1
3.785396777E0,-2.256962471E-2,5.453327298E-1,2.790910602E-1
3.805283027E0,-4.653736949E-2,5.160388350E-1,2.753627300E-1
3.825161464E0,-3.854811937E-2,4.520582557E-1,2.614481449E-1
3.845058599E0,-2.470009029E-2,3.742296696E-1,2.342846841E-1
3.864971724E0,-6.591129117E-3,3.129787743E-1,1.804904193E-1
3.884854381E0,-6.591129117E-3,2.633788586E-1,1.218360290E-1
3.904786829E0,-3.908073530E-2,1.914090663E-1,8.075797558E-2
3.924632922E0,-6.198324636E-2,1.023955271E-1,4.294220731E-2
3.944502141E0,-5.186353251E-2,-2.063889056E-3,1.950708032E-2
3.964429277E0,-3.641765565E-2,-9.853405505E-2,1.897446252E-2
3.984278704E0,-3.641765565E-2,-1.544587910E-1,-3.928046674E-3
4.004200631E0,-7.157034427E-2,-1.581871063E-1,-6.684337556E-2
4.024099068E0,-1.296921223E-1,-1.278279573E-1,-1.499981284E-1
4.043966204E0,-1.750310957E-1,-9.959928691E-2,-2.427399755E-1
4.063862037E0,-1.920748353E-1,-1.374150664E-1,-3.525255620E-1
4.083752037E0,-1.851508170E-1,-2.946700752E-1,-4.799540639E-1
4.103661777E0,-1.563229412E-1,-5.398734212E-1,-6.270228028E-1
4.123531152E0,-1.115831584E-1,-8.132388592E-1,-7.970606089E-1
4.143435631E0,-8.282186836E-2,-1.037137508E0,-1.011838198E0
4.163326777E0,-8.228924870E-2,-1.188001156E0,-1.267693877E0
4.183212558E0,-1.009308323E-1,-1.257773876E0,-1.527277827E0
4.203088964E0,-7.316819578E-2,-1.288732171E0,-1.822547078E0
4.223001777E0,-2.629793994E-2,-1.430474758E0,-2.210025549E0
4.242893235E0,3.182383627E-2,-1.548782229E0,-2.565014601E0
4.262808652E0,2.756290510E-2,-1.314297795E0,-2.847501040E0
4.282665579E0,4.513924941E-2,-7.381399274E-1,-3.183848381E0
4.302568495E0,1.543922126E-1,-1.848845035E-1,-3.564935446E0
4.322461985E0,3.121798635E-1,1.328212470E-1,-3.849019766E0
4.342348808E0,5.477294922E-1,2.980655134E-1,-3.959337950E0
4.362235787E0,8.312812448E-1,4.920710921E-1,-3.931109428E0
4.382136152E0,1.143128157E0,9.173653722E-1,-3.907141685E0
4.402023027E0,1.485800385E0,1.716356754E0,-4.049949169E0
4.421941047E0,1.865888834E0,2.895370007E0,-4.379372597E0
4.441809433E0,2.259758711E0,4.454338551E0,-4.819646835E0
4.461752558E0,2.746370554E0,6.512301922E0,-5.263582706E0
4.481602349E0,3.375856638E0,9.322253227E0,-5.703324318E0
4.501484693E0,4.190293789E0,1.297973156E1,-6.097726822E0
4.521392714E0,4.416789055E0,1.557490540E1,-5.833881855E0
4.541271412E0,3.382247925E0,1.370615387E1,-3.102823973E0
4.561149433E0,-8.065811396E-1,8.740769386E0,1.037270650E-1
4.581051308E0,-4.790219784E0,5.651993275E0,-1.393457949E-1
4.600971672E0,-7.555963993E0,2.451900005E0,-1.547517300E0
4.620868547E0,-1.113454819E1,-3.283714056E0,8.706948161E-1
4.640760318E0,-1.211742496E1,-3.388705969E0,3.527718782E0
4.660655891E0,-1.187701511E1,7.308164239E-1,5.233290195E0
4.680515474E0,-1.185038471E1,3.674587965E0,5.893668175E0
4.700401724E0,-1.111377621E1,4.146819115E0,4.752004623E0
4.720307297E0,-1.016878128E1,2.463085175E0,3.136445522E0
4.740191152E0,-8.792566299E0,6.093133092E-1,2.163754463E0
4.760106829E0,-6.808702946E0,-1.565892547E-1,1.183007836E0
4.779995839E0,-5.048205853E0,-5.808848739E-1,4.181705415E-1
4.799875631E0,-3.379917860E0,-9.401347041E-1,7.809489965E-2
4.819779068E0,-1.977605104E0,-1.130411983E0,-4.042559266E-1
4.839662297E0,-8.977251053E-1,-1.553575754E0,-1.019294858E0
4.859530266E0,-1.158440933E-1,-2.340317011E0,-1.597649813E0
4.879465110E0,3.830178380E-1,-3.285844326E0,-2.051239252E0
4.899323704E0,6.916691065E-1,-4.202077866E0,-2.369411230E0
4.919230214E0,8.819463849E-1,-5.031428337E0,-2.633255959E0
4.939133131E0,9.411333799E-1,-5.647599220E0,-2.795837164E0
4.959010579E0,8.680983186E-1,-5.789341927E0,-2.848566294E0
4.978932506E0,6.239602566E-1,-5.619303703E0,-2.892839909E0
4.998829224E0,2.039921284E-1,-5.461050034E0,-2.833120346E0
5.018711568E0,-4.547213390E-2,-5.035689354E0,-2.603429556E0
5.038560579E0,-8.721595630E-3,-4.117325306E0,-2.253766775E0
5.058477610E0,8.135717362E-2,-3.043903351E0,-1.867353439E0
5.078380370E0,-1.142462417E-1,-2.075406790E0,-1.537930131E0
5.098249745E0,-3.706345260E-1,-1.117096543E0,-1.422818422E0
5.118164485E0,-3.738302290E-1,-1.470021605E-1,-1.581671357E0
5.138038183E0,-1.675078869E-1,5.282890201E-1,-1.761762261E0
5.157917402E0,8.854749613E-3,6.604444981E-1,-1.655172348E0
5.177823339E0,1.187069044E-1,4.057206213E-1,-1.358837843E0
5.197725735E0,2.636451721E-1,1.557237506E-1,-1.229878068E0
5.217618027E0,4.533897936E-1,6.298190355E-2,-1.337533236E0
5.237513027E0,5.733616948E-1,-8.308817446E-2,-1.396720171E0
5.257407193E0,5.978620052E-1,-3.730312884E-1,-1.245324016E0
5.277284589E0,6.079817414E-1,-6.075156927E-1,-1.035339952E0
5.297192766E0,6.170362234E-1,-6.390066743E-1,-9.388697743E-1
5.317062818E0,5.983946323E-1,-5.814175010E-1,-8.983243108E-1
5.336976152E0,5.152398944E-1,-5.579823852E-1,-7.768211961E-1
5.356871516E0,4.256937504E-1,-5.382089615E-1,-5.758916140E-1
5.376799954E0,3.654415011E-1,-4.289560318E-1,-3.989297748E-1
5.396652610E0,3.105820119E-1,-2.221676558E-1,-2.976660430E-1
5.416542141E0,2.119813710E-1,3.262276202E-2,-2.384790480E-1
5.436435787E0,9.999874979E-2,2.900096774E-1,-1.974675655E-1
5.456312506E0,1.311568171E-2,4.952667654E-1,-1.627809256E-1
5.476208287E0,-5.932016298E-2,5.789541602E-1,-1.233673021E-1
5.496089016E0,-1.392792165E-1,5.272237659E-1,-7.270215452E-2
5.515972349E0,-2.165751904E-1,4.014596939E-1,-9.853405878E-3
5.535880943E0,-2.853493094E-1,2.996633649E-1,4.027912393E-2
5.555817766E0,-3.391435742E-1,2.569874525E-1,6.264901906E-2
5.575708808E0,-3.626452684E-1,2.708354890E-1,6.051855162E-2
5.595547974E0,-3.263607621E-1,3.209680319E-1,5.465976894E-2
5.615433027E0,-2.864145339E-1,3.444031477E-1,8.395367861E-2
5.635337974E0,-2.693707943E-1,3.262941837E-1,1.175750941E-1
5.655240318E0,-2.469343245E-1,3.113809228E-1,1.175750941E-1
5.675137297E0,-1.883465201E-1,3.289572597E-1,9.893351793E-2
5.695036464E0,-1.131810099E-1,3.545228541E-1,1.037270650E-1
5.714904954E0,-7.689651102E-2,3.529250026E-1,1.165098622E-1
5.734826829E0,-8.388710022E-2,2.959350348E-1,1.085206121E-1
5.754762506E0,-1.030612960E-1,1.717022508E-1,1.005313694E-1
5.774578808E0,-8.228924870E-2,4.327509180E-2,1.021292135E-1
5.794491881E0,-5.825493112E-2,-3.934704512E-2,9.733566642E-2
5.814392714E0,-7.583127916E-2,-7.609758526E-2,6.371425092E-2
5.834282714E0,-1.142462417E-1,-8.681648970E-2,2.995967865E-3
5.854164224E0,-1.595186442E-1,-7.290188223E-2,-8.228924870E-2
5.874047506E0,-1.942052990E-1,-8.149032295E-2,-1.670418531E-1
5.893932349E0,-2.213687450E-1,-1.315562725E-1,-2.331528813E-1
5.913828860E0,-2.543909550E-1,-2.051239312E-1,-2.971334457E-1
5.933724068E0,-2.890776098E-1,-2.723001838E-1,-3.711671233E-1
5.953602766E0,-3.093170524E-1,-3.197030723E-1,-4.703669548E-1
5.973497349E0,-3.061213493E-1,-3.895424008E-1,-5.849460959E-1
5.993397714E0,-3.061213493E-1,-5.259587765E-1,-6.766226888E-1
6.013275579E0,-3.135779798E-1,-7.013227940E-1,-7.458628416E-1
6.033187297E0,-3.135779798E-1,-8.276860714E-1,-8.402691483E-1
6.053064849E0,-2.789579034E-1,-8.378057480E-1,-9.585765600E-1
6.072974120E0,-2.080533206E-1,-7.706295252E-1,-1.053981543E0
6.092860735E0,-1.328878254E-1,-6.741593480E-1,-1.102982163E0
6.112772714E0,-6.058512721E-3,-6.091135740E-1,-1.093395114E0
6.132618183E0,1.975341439E-1,-6.384740472E-1,-1.063568592E0
6.152519224E0,3.377454579E-1,-7.402703762E-1,-1.091797233E0
6.172438287E0,3.787569106E-1,-7.637054920E-1,-1.195191503E0
6.192331047E0,3.702350557E-1,-6.160375476E-1,-1.358837843E0
6.212210318E0,3.489303887E-1,-3.181052208E-1,-1.550712943E0
6.232079016E0,3.649088740E-1,7.629731297E-2,-1.684532881E0
6.251988756E0,3.958672285E-1,5.133757591E-1,-1.748979449E0
6.271861516E0,4.533897936E-1,9.547150731E-1,-1.783133507E0
6.291786881E0,5.333488584E-1,1.243592978E0,-1.856634617E0
6.311654641E0,6.282211542E-1,1.433870196E0,-2.011226416E0
6.331560006E0,7.955959439E-1,1.619353890E0,-2.190318823E0
6.351454172E0,1.003449559E0,1.815490007E0,-2.340117216E0
6.371380579E0,1.225217700E0,2.139520645E0,-2.516546488E0
6.391240943E0,1.486865520E0,2.796236753E0,-2.797967672E0
6.411144068E0,1.808832288E0,3.997087240E0,-3.272861958E0
6.431020683E0,2.298107147E0,6.012308121E0,-4.008405209E0
6.450928131E0,3.120533466E0,9.239098549E0,-5.159656048E0
6.470797193E0,4.170520306E0,1.373125267E1,-6.560370922E0
6.490700006E0,4.522846222E0,1.731030273E1,-6.140935421E0
6.510591620E0,2.006566048E0,1.581311798E1,-2.353432655E0
6.530494797E0,-2.161490917E0,9.627110481E0,1.115898132E0
6.550375370E0,-3.791430712E0,6.461104393E0,-8.236914277E-1
6.570280006E0,-7.316686153E0,7.324143052E-1,-1.907832384E0
6.590201360E0,-1.066551208E1,-3.706944227E0,5.215647221E-1
6.610036152E0,-1.149326515E1,-7.695642710E-1,1.783732653E0
6.629964797E0,-1.187808037E1,2.878259659E0,2.773533821E0
6.649855631E0,-1.168087959E1,4.749674320E0,2.396641254E0
6.669764381E0,-1.116863537E1,4.242756367E0,4.320185781E-1
6.689637818E0,-1.018316174E1,1.760563850E0,-1.141397238E0
6.709533131E0,-8.372531891E0,-2.141784132E-1,-2.360889196E0
6.729407454E0,-6.738863945E0,-1.719885349E0,-2.673202276E0
6.749329537E0,-5.203863144E0,-2.562551260E0,-2.167416334E0
6.769193964E0,-3.697090864E0,-2.484789133E0,-1.839590907E0
6.789084277E0,-2.525534391E0,-2.293912649E0,-1.767155051E0
6.808989433E0,-1.659965992E0,-2.245977163E0,-1.842253923E0
6.828876256E0,-9.292160869E-1,-2.279532194E0,-2.019748449E0
6.848823339E0,-2.683055699E-1,-2.531126738E0,-2.146111727E0
6.868662089E0,3.143103123E-1,-3.027858257E0,-2.200438499E0
6.888529224E0,8.675656915E-1,-3.650420427E0,-2.255897284E0
6.908436568E0,1.281675100E0,-4.267656326E0,-2.414750099E0
6.928341152E0,1.451712847E0,-4.774507523E0,-2.679593563E0
6.948223599E0,1.536465526E0,-5.047407150E0,-2.880057096E0
6.968126777E0,1.555639625E0,-5.001601696E0,-2.986647129E0
6.988008339E0,1.484735131E0,-4.781431675E0,-2.976527452E0
7.007888912E0,1.448517203E0,-4.251145363E0,-2.851762056E0
7.027799797E0,1.466626167E0,-3.343966246E0,-2.681191444E0
7.047708495E0,1.398917317E0,-2.345110416E0,-2.526133537E0
7.067582870E0,1.159106731E0,-1.574414372E0,-2.365682840E0
7.087468183E0,8.579786420E-1,-9.103081822E-1,-2.249505758E0
7.107345162E0,8.126396537E-1,-2.248307467E-1,-2.174872875E0
7.127255214E0,9.773513079E-1,3.348160684E-1,-2.062956810E0
7.147143756E0,1.008243084E0,5.000603199E-1,-1.824144959E0
7.167038964E0,8.174331784E-1,3.087178469E-1,-1.538462758E0
7.186943027E0,6.234276295E-1,1.071890723E-2,-1.357772589E0
7.206868079E0,5.248270035E-1,-2.205698192E-1,-1.319424272E0
7.226746933E0,5.173703432E-1,-3.847488463E-1,-1.279411435E0
7.246620318E0,5.301531553E-1,-5.622432828E-1,-1.108840942E0
7.266514693E0,5.067180395E-1,-6.943987608E-1,-8.663673401E-1
7.286415370E0,4.320851564E-1,-6.949313879E-1,-6.973947287E-1
7.306283652E0,3.207017183E-1,-6.011242867E-1,-6.003919840E-1
7.326176881E0,2.700365782E-1,-4.796211720E-1,-5.039218068E-1
7.346066568E0,2.860150635E-1,-3.597158790E-1,-3.888100684E-1
7.365951829E0,2.988644540E-1,-2.487984896E-1,-2.859484851E-1
7.385852297E0,2.194380015E-1,-2.157762647E-1,-1.835529655E-1
7.405799433E0,5.206326395E-2,-2.429397106E-1,-7.216953486E-2
7.425723756E0,-1.035939083E-1,-2.205698192E-1,-2.050573565E-2
7.445509693E0,-1.920748353E-1,-1.235670298E-1,-3.169068322E-2
7.465444277E0,-2.139120996E-1,-4.414059222E-2,-1.411433797E-2
7.485284381E0,-2.101837844E-1,-1.378145255E-2,4.826837033E-2
7.505202610E0,-1.798246503E-1,4.220985994E-2,1.202381775E-1
7.525101360E0,-1.312899739E-1,1.007976755E-1,1.729672104E-1
7.545016204E0,-8.708280325E-2,1.386800259E-1,1.676410437E-1
7.564903339E0,-5.452661589E-2,1.796914935E-1,1.239664927E-1
7.584783131E0,-5.612446368E-2,1.919416785E-1,9.254211932E-2
7.604688860E0,-7.796174288E-2,1.754305661E-1,1.085206121E-1
7.624556724E0,-1.019960642E-1,1.855502725E-1,1.356840581E-1
7.644460631E0,-1.158440933E-1,2.170412242E-1,1.362166703E-1
7.664344849E0,-1.334204376E-1,2.687050402E-1,1.234338731E-1
7.684240527E0,-1.419423074E-1,3.561207056E-1,1.047922969E-1
7.704151204E0,-1.515294015E-1,4.685693681E-1,8.828118443E-2
7.724026464E0,-1.696383655E-1,5.495936871E-1,9.573781490E-2
7.743926464E0,-1.723680198E-1,5.160388350E-1,1.149120107E-1
7.763817922E0,-1.584534049E-1,3.683708906E-1,1.298252791E-1
7.783702037E0,-1.509967744E-1,2.053236663E-1,1.410102248E-1
7.803586464E0,-1.291595101E-1,1.232341453E-1,1.314231306E-1
7.823463912E0,-1.126483902E-1,1.099187359E-1,1.063901484E-1
7.843380318E0,-1.126483902E-1,8.055824786E-2,8.828118443E-2
7.863245787E0,-1.009308323E-1,-1.537930220E-2,8.881380409E-2
7.883173391E0,-8.228924870E-2,-1.139799356E-1,8.987903595E-2
7.903052402E0,-7.476603985E-2,-1.459369212E-1,7.063826174E-2
7.922944068E0,-8.495233208E-2,-1.272953451E-1,2.163754590E-2
7.942841464E0,-9.560466558E-2,-1.496652365E-1,-2.476666868E-2
7.962770839E0,-9.453943372E-2,-2.898765504E-1,-4.713656008E-2
7.982633027E0,-8.601756394E-2,-5.254262090E-1,-5.139749497E-2
8.002493287E0,-9.134373069E-2,-7.487922311E-1,-8.548495173E-2
8.022403495E0,-1.446053833E-1,-9.337432981E-1,-1.782267988E-1
8.042288704E0,-2.208361179E-1,-1.122422695E0,-2.581858635E-1
8.062179120E0,-2.848166823E-1,-1.346254826E0,-3.200359344E-1
8.082065474E0,-3.332847953E-1,-1.423550725E0,-4.276910722E-1
8.101951464E0,-4.169721603E-1,-1.228479981E0,-6.291532516E-1
8.121867610E0,-4.708330035E-1,-9.161669612E-1,-8.408017159E-1
8.141753860E0,-5.054530501E-1,-6.651048660E-1,-1.021425366E0
8.161626881E0,-4.948007464E-1,-5.899393559E-1,-1.206909060E0
8.181529277E0,-4.025914967E-1,-7.130403519E-1,-1.403644204E0
8.201420422E0,-3.013277948E-1,-9.348085523E-1,-1.656770229E0
8.221333599E0,-1.541924775E-1,-1.071224928E0,-1.954769135E0
8.241181933E0,1.128481254E-1,-1.073888063E0,-2.231396914E0
8.261108547E0,4.123783410E-1,-8.202294111E-1,-2.590047598E0
8.280998547E0,7.572475076E-1,-3.602485061E-1,-3.002625704E0
8.300865214E0,1.115898132E0,1.621151567E-1,-3.342168570E0
8.320797818E0,1.460234761E0,7.196314931E-1,-3.617731094E0
8.340694589E0,1.789658070E0,1.389596462E0,-3.880444288E0
8.360558443E0,2.098242760E0,2.295177698E0,-4.129375935E0
8.380474745E0,2.439383507E0,3.594628811E0,-4.331903458E0
8.400369693E0,2.825264215E0,5.258656025E0,-4.408133984E0
8.420231204E0,3.204753637E0,7.015957355E0,-4.255672455E0
8.440144068E0,3.694028378E0,9.140498161E0,-3.940163851E0
8.460015162E0,4.351210594E0,1.221855545E1,-3.661405563E0
8.479928131E0,4.495682716E0,1.549920750E1,-3.402354240E0
8.499808964E0,3.659940958E0,1.623102188E1,-2.164220572E0
8.519712922E0,1.532737136E0,1.315130043E1,4.027912393E-2
8.539597193E0,-8.396699429E-1,9.767321587E0,-8.605085611E-1
8.559498964E0,-3.270132303E0,4.756065845E0,-5.007793427E0
8.579381881E0,-8.074599266E0,-3.039109707E0,-7.175476074E0
8.599277402E0,-1.091710758E1,-6.387403488E0,-5.534884453E0
8.619179172E0,-1.132748795E1,-4.230306625E0,-1.309837103E0
8.639061777E0,-1.187914562E1,4.275579154E-1,2.009695292E0
8.658973808E0,-1.142449093E1,4.227843285E0,2.416947126E0
8.678881516E0,-1.063621902E1,3.694827318E0,1.772547722E0
8.698789537E0,-9.674113274E0,7.132400870E-1,1.420754552E0
8.718618287E0,-7.761221409E0,-1.079214215E0,1.003382921E0
8.738510474E0,-5.741139889E0,-1.517357826E0,6.206979752E-1
8.758436047E0,-4.315325737E0,-1.551445365E0,5.919366479E-1
8.778295891E0,-3.174194574E0,-1.397985220E0,5.189016461E-1
8.798194016E0,-2.095912457E0,-1.375615239E0,1.351514459E-1
8.818076308E0,-1.247920513E0,-1.797181249E0,-3.487972319E-1
8.837999277E0,-6.456643939E-1,-2.627597094E0,-8.125064969E-1
8.857866047E0,-1.493989378E-1,-3.569928646E0,-1.186669588E0
8.877775527E0,2.508623898E-1,-4.360398293E0,-1.488396883E0
8.897646360E0,4.854133725E-1,-5.025037289E0,-1.815623164E0
8.917540891E0,5.813509226E-1,-5.635881424E0,-2.189253569E0
8.937457922E0,5.599796772E-1,-6.124623775E0,-2.530394554E0
8.957345943E0,3.889431953E-1,-6.355380058E0,-2.814478874E0
8.977216672E0,1.687728614E-1,-6.383675098E0,-2.916275024E0
8.997098183E0,-1.632469594E-1,-6.172559261E0,-2.796369791E0
9.017021985E0,-4.207004607E-1,-5.475963593E0,-2.571405888E0
9.036931620E0,-5.001268983E-1,-4.260199547E0,-2.397107124E0
9.056795058E0,-6.232278943E-1,-2.989509821E0,-2.239918709E0
9.076688131E0,-8.460613489E-1,-1.809431434E0,-2.018683195E0
9.096573599E0,-9.046491385E-1,-6.917356849E-1,-1.927006483E0
9.116478964E0,-8.236914277E-1,6.990591530E-3,-1.941387177E0
9.136368964E0,-7.751567364E-1,2.101172209E-1,-1.925408721E0
9.156246047E0,-6.792191863E-1,6.244928762E-2,-1.896114826E0
9.176148339E0,-5.699662566E-1,-3.101159632E-1,-1.836927772E0
9.196020162E0,-4.894745648E-1,-7.199643850E-1,-1.742588043E0
9.215937402E0,-3.993957937E-1,-9.902006984E-1,-1.642922163E0
9.235829849E0,-2.389450818E-1,-1.101650715E0,-1.523549557E0
9.255803235E0,-3.801550344E-2,-1.124553204E0,-1.374283791E0
9.275617818E0,1.469355822E-1,-1.106444240E0,-1.203713298E0
9.295512870E0,2.892107666E-1,-1.064833522E0,-1.013436079E0
9.315414068E0,3.558544219E-1,-1.041931033E0,-8.210283518E-1
9.335303443E0,4.006607831E-1,-1.006778359E0,-6.328815818E-1
9.355158027E0,4.581833482E-1,-8.958609700E-1,-4.906063974E-1
9.375072558E0,5.040549636E-1,-7.338789701E-1,-3.930709958E-1
9.394976933E0,4.997940063E-1,-5.979285836E-1,-2.821536064E-1
9.414886464E0,4.496614933E-1,-4.828168750E-1,-1.627809256E-1
9.434771985E0,3.638436496E-1,-3.458012640E-1,-7.323476672E-2
9.454715891E0,2.716344297E-1,-1.688394397E-1,-2.050573565E-2
9.474538287E0,1.890122890E-1,3.741630912E-2,-7.323477184E-4
9.494439849E0,1.368158609E-1,2.287587970E-1,-1.145125460E-2
9.514326672E0,9.893351793E-2,3.449357748E-1,-3.435376659E-2
9.534190214E0,5.898727849E-2,3.678382933E-1,-7.003907114E-2
9.554115214E0,8.322132751E-3,3.305551112E-1,-9.826774895E-2
9.573972349E0,-7.263557613E-2,2.900096774E-1,-1.015300229E-1
9.593887922E0,-1.547250897E-1,3.273594379E-1,-8.335448056E-2
9.613777558E0,-2.256296724E-1,4.675041437E-1,-6.577813625E-2
9.633675214E0,-2.826862037E-1,6.077154279E-1,-5.778888986E-2
9.653552766E0,-3.370130956E-1,6.236939430E-1,-2.689713426E-2
9.673465318E0,-3.599821925E-1,5.314847231E-1,1.737661287E-2
9.693333808E0,-3.311543167E-1,3.966661394E-1,3.388772532E-2
9.713253027E0,-2.709686458E-1,2.282261699E-1,3.069202602E-2
9.733132193E0,-2.293579876E-1,5.552527308E-2,1.418091450E-2
9.753011568E0,-2.266948968E-1,-9.693620354E-2,-6.058512721E-3
9.772920735E0,-2.389450818E-1,-2.296242863E-1,-1.091863867E-2
9.792815214E0,-2.533257306E-1,-3.404751122E-1,1.151783206E-2
9.812747349E0,-2.623802125E-1,-3.980642557E-1,3.282249346E-2
9.832595266E0,-2.688381970E-1,-3.863466978E-1,1.950708032E-2
9.852466724E0,-2.917406857E-1,-3.228987455E-1,-1.464695390E-2
9.872387193E0,-3.359478712E-1,-2.456027865E-1,-5.193011090E-2
9.892282193E0,-3.935370147E-1,-1.731669456E-1,-1.015300229E-1
9.912161308E0,-4.628437459E-1,-1.512630880E-1,-1.713027805E-1
9.932043808E0,-5.609117746E-1,-2.115153372E-1,-2.496639937E-1
9.951917870E0,-6.781539917E-1,-3.095833361E-1,-3.487972319E-1
9.971832714E0,-8.204957247E-1,-3.884771764E-1,-4.922042489E-1
9.991729068E0,-1.002717137E0,-4.321517348E-1,-6.904707551E-1
1.001160318E1,-1.187135577E0,-4.892082810E-1,-9.479242563E-1
1.003152084E1,-1.307107449E0,-6.176354289E-1,-1.217095256E0
1.005142521E1,-1.265496850E0,-7.866080403E-1,-1.432405591E0
1.007128428E1,-1.072023869E0,-9.193626642E-1,-1.613095641E0
1.009119448E1,-8.529853225E-1,-1.068029284E0,-1.831601620E0
1.011106506E1,-6.595124006E-1,-1.288199663E0,-2.084794283E0
1.013097813E1,-4.836157858E-1,-1.535999417E0,-2.317680836E0
1.015087021E1,-2.656424940E-1,-1.709765553E0,-2.448304892E0
1.017076152E1,1.364829857E-2,-1.717754841E0,-2.518144369E0
1.019065438E1,2.977991998E-1,-1.561631560E0,-2.582590818E0
1.021053376E1,5.349466801E-1,-1.259904385E0,-2.691910505E0
1.023042542E1,7.689650655E-1,-8.649691939E-1,-2.805956841E0
1.025032896E1,1.012503982E0,-4.396083653E-1,-2.773400784E0
1.027020433E1,1.267294407E0,5.765573680E-2,-2.630593061E0
1.029010131E1,1.504508495E0,7.612421513E-1,-2.469609499E0
1.030997678E1,1.658501267E0,1.825609684E0,-2.341182470E0
1.032990094E1,1.572150826E0,3.359611750E0,-2.243647099E0
1.034979136E1,9.730903506E-1,5.227231503E0,-2.195645094E0
1.036970527E1,2.577863932E-1,7.169484138E0,-2.093316078E0
1.038958063E1,8.029194176E-2,9.179978371E0,-2.197775364E0
1.040945756E1,5.466642976E-1,1.167541981E1,-3.045767546E0
1.042934672E1,2.031599045E0,1.394762897E1,-4.757264137E0
1.044924449E1,3.224460363E0,1.595386219E1,-6.407975674E0
1.046913980E1,2.903625488E0,1.635572052E1,-5.322237015E0
1.048903490E1,-2.704360485E-1,1.262900352E1,-1.990454435E0
1.050895745E1,-4.905930519E0,9.333971024E0,-2.254832029E0
1.052885688E1,-7.889115810E0,6.182346344E0,-2.639647484E0
1.054874433E1,-9.923577309E0,9.483237267E-1,-1.063035965E0
1.056858042E1,-1.211156654E1,-3.345564127E0,6.559172273E-1
1.058850730E1,-1.292167568E1,-4.024050713E0,3.317135572E0
1.060839829E1,-1.205717278E1,-8.979914188E-1,5.421436787E0
1.062826902E1,-1.086857224E1,2.274405718E0,5.932615757E0
1.064815735E1,-9.686896324E0,3.215139627E0,4.755733013E0
1.066806021E1,-8.412544250E0,2.728527784E0,2.435056210E0
1.068793381E1,-6.240534306E0,1.867220283E0,3.286243975E-1
1.070784021E1,-4.461395741E0,9.168327451E-1,-1.159506202E0
1.072775485E1,-3.060680866E0,-4.840152711E-2,-1.787394404E0
1.074766443E1,-1.461100221E0,-5.211652517E-1,-2.041053057E0
1.076750818E1,-3.215672076E-1,-8.057821989E-1,-2.337454081E0
1.078743376E1,3.057884574E-1,-1.248719454E0,-2.535187960E0
1.080728006E1,5.733616948E-1,-1.869683743E0,-2.633255959E0
1.082718417E1,8.499893546E-1,-2.605759621E0,-2.671071768E0
1.084707589E1,1.142062902E0,-3.611006737E0,-2.630060434E0
1.086698271E1,1.040266633E0,-4.544283867E0,-2.727595806E0
1.088695193E1,7.716282010E-1,-5.064450741E0,-3.022332430E0
1.090679412E1,5.637080073E-1,-5.497268200E0,-3.166271925E0
1.092664006E1,2.849498391E-1,-5.955118656E0,-3.135846376E0
1.094653657E1,2.223674022E-2,-5.865039825E0,-3.141705036E0
1.096643652E1,3.448691964E-2,-5.254727840E0,-3.157217503E0
1.098631266E1,-1.085206121E-2,-4.592751980E0,-2.896568298E0
1.100622824E1,-2.981320918E-1,-3.894025803E0,-2.561286211E0
1.102611131E1,-5.444006324E-1,-3.041240215E0,-2.382194042E0
1.104601688E1,-6.173691154E-1,-2.177203178E0,-2.255897284E0
1.106589146E1,-5.955318213E-1,-1.540260434E0,-2.164753199E0
1.108578193E1,-4.457334578E-1,-1.151183963E0,-2.082131147E0
1.110574313E1,-1.046591476E-1,-8.734911084E-1,-1.990987062E0
1.112556344E1,2.774932086E-1,-6.645722389E-1,-1.948843837E0
1.114548396E1,5.232291222E-1,-6.000590920E-1,-1.932865381E0
1.116537834E1,6.319494843E-1,-7.071815729E-1,-1.852373600E0
1.118525074E1,7.151042223E-1,-9.816787839E-1,-1.645585299E0
1.120513547E1,7.721607685E-1,-1.353178859E0,-1.298585653E0
1.122507251E1,7.833457589E-1,-1.658101797E0,-9.580439329E-1
1.124493782E1,7.860088348E-1,-1.794518232E0,-6.830140948E-1
1.126485584E1,7.604432106E-1,-1.748180509E0,-4.569849670E-1
1.128475001E1,7.230935097E-1,-1.507238150E0,-3.365470469E-1
1.130461667E1,6.559172273E-1,-1.136803389E0,-3.109814525E-1
1.132449021E1,5.455990434E-1,-7.333463430E-1,-3.072531521E-1
1.134437808E1,3.857475221E-1,-4.001947343E-1,-2.592510879E-1
1.136428277E1,2.295577228E-1,-1.891454458E-1,-1.894117445E-1
1.138416183E1,1.171090528E-1,-1.374150664E-1,-1.409436464E-1
1.140407980E1,1.045259926E-2,-2.109827101E-1,-1.238999143E-1
1.142397032E1,-8.761541545E-2,-3.292901516E-1,-1.302913129E-1
1.144386011E1,-1.478010863E-1,-4.097818434E-1,-1.547916681E-1
1.146376850E1,-1.504641622E-1,-4.199015498E-1,-1.862160414E-1
1.148364469E1,-1.339530498E-1,-3.554549515E-1,-2.065220475E-1
1.150354626E1,-1.041265279E-1,-2.424070835E-1,-2.166417688E-1
1.152343990E1,-8.601756394E-2,-1.027949899E-1,-2.384790480E-1
1.154332449E1,-6.304848194E-2,3.635107726E-2,-2.859484851E-1
1.156320636E1,-2.896102332E-2,1.312233955E-1,-3.179054856E-1
1.158311751E1,-3.928046674E-3,1.578542143E-1,-3.029922247E-1
1.160300402E1,1.258306485E-2,1.519954354E-1,-2.794905007E-1
1.162290636E1,1.744319126E-2,1.269624680E-1,-2.411421239E-1
1.164279449E1,2.170412242E-2,8.162347972E-2,-1.969349533E-1
1.166269105E1,4.460663348E-2,2.889444493E-2,-1.814225018E-1
1.168254079E1,7.336792350E-2,-3.721657768E-2,-1.686397046E-1
1.170244245E1,8.615072072E-2,-8.681648970E-2,-1.521285921E-1
1.172236605E1,8.721595258E-2,-1.049254537E-1,-1.191063672E-1
1.174225136E1,7.070484012E-2,-8.894696087E-2,-6.631075591E-2
1.176215001E1,3.874785081E-2,-3.189041466E-2,-2.476666868E-2
1.178201131E1,1.904104091E-2,7.043853402E-2,-2.529928461E-2
1.180193365E1,2.117150649E-2,1.754305661E-1,-4.394086078E-2
1.182183146E1,1.691057347E-2,2.213021666E-1,-3.382114694E-2
1.184171074E1,-5.525896326E-3,2.207695395E-1,-2.796236612E-2
1.186159422E1,-4.227643460E-2,1.940721422E-1,-4.873441160E-2
1.188148735E1,-7.636389136E-2,1.227015257E-1,-7.216953486E-2
1.190138605E1,-8.655018359E-2,1.983996481E-2,-9.347419441E-2
1.192125485E1,-7.909355313E-2,-7.449973375E-2,-1.148454323E-1
1.194115334E1,-6.251586229E-2,-1.422086060E-1,-1.377479434E-1
1.196105261E1,-6.464632601E-2,-1.886128187E-1,-1.723680198E-1
1.198095844E1,-1.025286764E-1,-2.333526164E-1,-2.150439173E-1
1.200083240E1,-1.424749196E-1,-2.557224929E-1,-2.950029671E-1
1.202074001E1,-1.840855777E-1,-2.221676558E-1,-4.303541481E-1
1.204063376E1,-2.778926790E-1,-1.145125479E-1,-6.014571786E-1
1.206050876E1,-4.452008307E-1,2.410089783E-2,-8.135717511E-1
1.208042214E1,-6.306845546E-1,1.125818118E-1,-1.038535595E0
1.210030074E1,-7.106435895E-1,3.528584540E-2,-1.325283051E0
1.212016876E1,-6.659038067E-1,-2.168415040E-1,-1.673347950E0
1.214008501E1,-6.136407852E-1,-4.913387299E-1,-1.955834389E0
1.215997834E1,-5.224968195E-1,-6.358109713E-1,-2.229799032E0
1.217984933E1,-3.460675776E-1,-6.282877326E-1,-2.582590818E0
1.219974860E1,-9.773512930E-2,-5.206326246E-1,-2.938645124E0
1.221963042E1,2.109161317E-1,-3.442034125E-1,-3.192902803E0
1.223951974E1,5.850792527E-1,-8.042509109E-2,-3.331982374E0
1.225941813E1,1.022623658E0,3.529250026E-1,-3.408745766E0
1.227931771E1,1.520486951E0,1.010107160E0,-3.453552008E0
1.229921782E1,2.032664299E0,1.866088510E0,-3.480182886E0
1.231908600E1,2.537451744E0,2.915076733E0,-3.486574173E0
1.233899251E1,3.016606808E0,4.224647522E0,-3.506281137E0
1.235889542E1,3.455815554E0,5.856184959E0,-3.672057867E0
1.237880297E1,3.945623159E0,7.731261730E0,-3.867661476E0
1.239865985E1,4.449278831E0,9.707069397E0,-3.901815414E0
1.241856709E1,4.724308491E0,1.112808990E1,-3.890563965E0
1.243845068E1,4.370451450E0,1.061584568E1,-3.631579161E0
1.245836313E1,2.415349245E0,7.847970963E0,-2.870936155E0
1.247825209E1,-2.026672363E0,5.272503853E0,-2.787847996E0
1.249813860E1,-5.930352211E0,3.883506775E0,-3.699754000E0
1.251803636E1,-8.798425674E0,1.269158602E0,-2.900829315E0
1.253792751E1,-1.119480038E1,-5.803522468E-1,7.838117480E-1
1.255781959E1,-1.113721085E1,1.819218278E0,3.954611063E0
1.257774240E1,-1.134027100E1,3.586107016E0,5.128298283E0
1.259761719E1,-1.148634148E1,2.860150576E0,4.953999519E0
1.261748527E1,-1.041604805E1,1.804837584E0,4.242956161E0
1.263741469E1,-9.111804008E0,1.167362213E0,3.560208559E0
1.265728636E1,-7.701501846E0,7.340121269E-1,2.638648748E0
1.267717667E1,-6.144064426E0,2.777595222E-1,1.507637620E0
1.269707813E1,-4.774774075E0,-3.149095178E-1,8.536511064E-1
1.271697615E1,-3.661339045E0,-5.489279032E-1,4.874772727E-1
1.273683339E1,-2.781922579E0,-3.709008098E-1,-3.595161438E-2
1.275676626E1,-1.965887547E0,-3.415403366E-1,-4.442021847E-1
1.277665136E1,-1.307107449E0,-7.562488914E-1,-6.798183918E-1
1.279651235E1,-8.055158854E-1,-1.531205893E0,-9.174985290E-1
1.281641652E1,-3.119801283E-1,-2.509289503E0,-1.162701845E0
1.283629724E1,7.123745978E-2,-3.573124409E0,-1.465960383E0
1.285620412E1,3.132450879E-1,-4.690287590E0,-1.753240347E0
1.287608850E1,4.645747542E-1,-5.838941574E0,-1.896647453E0
1.289598896E1,5.514578223E-1,-6.784469128E0,-1.950508237E0
1.291588146E1,6.629078388E-1,-7.145316601E0,-2.105566263E0
1.293581558E1,7.374741435E-1,-6.890526295E0,-2.381128788E0
1.295566808E1,6.591129303E-1,-6.398588657E0,-2.441380978E0
1.297555172E1,3.265604973E-1,-5.680088997E0,-2.269745350E0
1.299546532E1,-1.419423074E-1,-4.616253853E0,-2.211090803E0
1.301534172E1,-6.179017425E-1,-3.466001987E0,-2.286788940E0
1.303522985E1,-8.279523849E-1,-2.430928230E0,-2.388585329E0
1.305512235E1,-7.943309546E-1,-1.665025830E0,-2.316082954E0
1.307500745E1,-6.531209946E-1,-1.239664912E0,-2.071478844E0
1.309491068E1,-6.456643939E-1,-1.146390438E0,-1.841188669E0
1.311483589E1,-7.037195563E-1,-1.188001156E0,-1.742055416E0
1.313472641E1,-7.618413568E-1,-1.189066410E0,-1.726609588E0
1.315461402E1,-7.469280958E-1,-1.129346728E0,-1.735131383E0
1.317448162E1,-6.637732983E-1,-1.126683712E0,-1.698380947E0
1.319438407E1,-5.315513015E-1,-1.211436272E0,-1.569354534E0
1.321427521E1,-3.972653449E-1,-1.230610490E0,-1.364696622E0
1.323414975E1,-3.071865737E-1,-1.064833522E0,-1.195191503E0
1.325404261E1,-2.800231278E-1,-7.945972681E-1,-1.100851774E0
1.327393063E1,-2.602497339E-1,-5.089150667E-1,-1.018762231E0
1.329382277E1,-2.192382663E-1,-2.274938226E-1,-9.238899350E-1
1.331375527E1,-1.153114736E-1,6.617759913E-2,-8.519867063E-1
1.333360370E1,-1.031944528E-2,2.468677461E-1,-7.874734998E-1
1.335352198E1,3.235645220E-2,2.229000032E-1,-7.053840160E-1
1.337339745E1,6.165036187E-2,9.440627694E-2,-6.169030666E-1
1.339328251E1,1.101850420E-1,1.824211515E-2,-5.459985137E-1
1.341316464E1,1.346853971E-1,-1.058575325E-2,-4.879432917E-1
1.343305350E1,6.591129303E-2,-4.094489291E-2,-4.228975177E-1
1.345297636E1,-1.884130947E-2,-1.537930220E-2,-3.546560109E-1
1.347288370E1,-8.548495173E-2,1.131144315E-1,-3.125793040E-1
1.349280047E1,-1.435401440E-1,2.852161527E-1,-3.088510036E-1
1.351271344E1,-2.000640780E-1,4.115794003E-1,-2.992638946E-1
1.353254100E1,-2.432060093E-1,4.531235099E-1,-2.507292330E-1
1.355244037E1,-2.677729428E-1,4.744281471E-1,-2.086525112E-1
1.357232068E1,-2.773600519E-1,4.979298711E-1,-1.953371018E-1
1.359223803E1,-2.917406857E-1,4.584496617E-1,-1.718354076E-1
1.361211370E1,-3.061213493E-1,3.598490357E-1,-1.436067224E-1
1.363200256E1,-2.949363887E-1,2.543243766E-1,-1.393457949E-1
1.365189756E1,-2.778926790E-1,1.674413085E-1,-1.302913129E-1
1.367178928E1,-2.517278790E-1,1.115165800E-1,-1.063235700E-1
1.369169386E1,-2.080533206E-1,9.174319357E-2,-9.081111848E-2
1.371157355E1,-1.621817350E-1,8.908011019E-2,-7.483261824E-2
1.373146589E1,-1.227681041E-1,1.029281393E-1,-3.808208182E-2
1.375135771E1,-8.282186836E-2,1.365495622E-1,7.256899960E-3
1.377123558E1,-5.665707961E-2,1.690391600E-1,3.548557684E-2
1.379113818E1,-4.334167019E-2,1.637129933E-1,5.732285231E-2
1.381102933E1,-2.097177505E-2,1.264298409E-1,4.613790661E-2
1.383090172E1,3.528584493E-3,6.990591437E-2,1.311568171E-2
1.385082297E1,1.744319126E-2,-4.660394625E-4,1.205044892E-2
1.387071709E1,1.797580719E-2,-6.171693653E-2,4.081173986E-2
1.389059688E1,1.584534161E-2,-8.628387749E-2,7.809489965E-2
1.391049995E1,1.258306485E-2,-5.585815758E-2,1.037270650E-1
1.393039678E1,-7.323477184E-4,1.391460653E-2,9.094426781E-2
1.395026615E1,-2.896102332E-2,1.002650559E-1,7.809489965E-2
1.397014287E1,-4.547213390E-2,1.807567328E-1,9.360735118E-2
1.399005021E1,-5.559184775E-2,2.436720580E-1,1.058575287E-1
1.400993964E1,-6.943988055E-2,2.697702646E-1,1.005313694E-1
1.402982032E1,-7.796174288E-2,2.458025217E-1,8.448629081E-2
1.404975230E1,-9.880036116E-2,2.031932026E-1,5.625762045E-2
1.406959610E1,-1.243659556E-1,1.610499173E-1,1.631138101E-2
1.408950214E1,-1.691057384E-1,1.088534966E-1,-2.583190054E-2
1.410940011E1,-2.224339694E-1,6.138405204E-2,-6.204982474E-2
1.412929178E1,-2.640446424E-1,3.635107726E-2,-1.159106717E-1
1.414919324E1,-2.944037914E-1,2.356828004E-2,-2.310224175E-1
1.416907178E1,-3.252955377E-1,-4.733629152E-2,-3.610474169E-1
1.418897417E1,-3.605147898E-1,-2.189719677E-1,-4.756931365E-1
1.420888495E1,-3.754280508E-1,-4.396083653E-1,-6.153052449E-1
1.422877324E1,-3.892760873E-1,-6.443328261E-1,-7.789516449E-1
1.424863370E1,-4.313527942E-1,-7.567814589E-1,-9.734898210E-1
1.426852870E1,-4.825505614E-1,-6.789528728E-1,-1.207974195E0
1.428843438E1,-5.315513015E-1,-3.938033283E-1,-1.507038474E0
1.430832042E1,-5.475963354E-1,9.919982404E-2,-1.923810840E0
1.432820876E1,-4.623111188E-1,7.510558367E-1,-2.458424568E0
1.434810928E1,-2.586518824E-1,1.405641556E0,-3.006886482E0
1.436801271E1,6.537867337E-2,1.931666970E0,-3.400756359E0
1.438789417E1,4.597811997E-1,2.352234364E0,-3.571859598E0
1.440781053E1,8.872725368E-1,2.827128410E0,-3.615001440E0
1.442769490E1,1.365895033E0,3.513604641E0,-3.645427227E0
1.444756626E1,1.934596300E0,4.556201458E0,-3.729647160E0
1.446747011E1,2.584321976E0,6.064038754E0,-3.883639812E0
1.448736084E1,3.361475945E0,8.075597763E0,-4.050481796E0
1.450725709E1,4.239827156E0,1.053109360E1,-4.217856884E0
1.452714198E1,5.160854340E0,1.305855846E1,-4.396948814E0
1.454704324E1,5.935278893E0,1.495287609E1,-4.434232235E0
1.456692896E1,5.587280273E0,1.428610611E1,-2.825131178E0
1.458684631E1,1.725144863E0,1.047410297E1,-8.380720615E-1
1.460674974E1,-2.989776134E0,8.722661018E0,-3.438106060E0
1.462660006E1,-6.171227932E0,4.053011894E0,-6.908435822E0
1.464647907E1,-1.153587437E1,-5.765906811E0,-5.018978596E0
1.466638454E1,-1.448443985E1,-7.103173733E0,-1.455308080E0
1.468628480E1,-1.393491268E1,-1.640458822E0,2.751097441E0
1.470619261E1,-1.359224033E1,4.035968304E0,5.321238518E0
1.472608365E1,-1.229705048E1,7.698771954E0,3.528784037E0
1.474594829E1,-1.071557808E1,6.001656055E0,2.523936629E-1
1.476584058E1,-9.725311279E0,8.006557822E-1,-1.359903097E0
1.478577907E1,-7.775069237E0,-2.152702808E0,-2.262288570E0
1.480564740E1,-5.793336391E0,-3.113143444E0,-2.518676996E0
1.482554115E1,-4.003545284E0,-3.637637615E0,-1.752175212E0
1.484541860E1,-2.421607494E0,-3.462806225E0,-1.374283791E0
1.486532917E1,-1.261235952E0,-3.055620909E0,-1.477677941E0
1.488520516E1,-4.404072762E-1,-2.947965860E0,-1.562430501E0
1.490508391E1,-1.191729400E-2,-2.960216045E0,-1.685598135E0
1.492500995E1,4.725640118E-1,-3.219733477E0,-1.794851065E0
1.494491188E1,1.163367629E0,-3.555015564E0,-1.952106118E0
1.496481422E1,1.568955064E0,-4.072585583E0,-2.096511841E0
1.498468787E1,1.650511980E0,-4.978632927E0,-2.210558176E0
1.500454063E1,1.459702134E0,-5.685414791E0,-2.610886097E0
1.502445141E1,1.330742359E0,-5.306458473E0,-3.149161816E0
1.504433120E1,1.325416207E0,-3.989430904E0,-3.269133568E0
1.506424230E1,1.300849199E0,-2.719806194E0,-2.716943502E0
1.508412412E1,9.378710985E-1,-1.480074763E0,-2.080000639E0
1.510401115E1,7.007235885E-1,-6.118432060E-2,-1.809231758E0
1.512392136E1,6.431344151E-1,1.084207535E0,-1.718087673E0
1.514380771E1,5.093811154E-1,1.313432336E0,-1.380675197E0
1.516372271E1,2.034595013E-1,7.563820481E-1,-9.004548192E-1
1.518357360E1,-2.896102332E-2,1.274950802E-1,-6.259575486E-1
1.520347422E1,-1.990654133E-2,4.327509087E-3,-6.003919840E-1
1.522336370E1,1.373484880E-1,3.449357748E-1,-6.222292185E-1
1.524328183E1,2.716344297E-1,7.660356760E-1,-5.780220628E-1
1.526317313E1,2.999296784E-1,9.605738521E-1,-5.113784075E-1
1.528303808E1,3.281583488E-1,1.014900804E0,-4.772909582E-1
1.530293787E1,4.086500108E-1,1.137535691E0,-4.810192883E-1
1.532285574E1,4.699009061E-1,1.264897585E0,-4.378107786E-1
1.534277032E1,4.928700030E-1,1.202514887E0,-3.211011887E-1
1.536261766E1,4.790219665E-1,9.754871130E-1,-2.059894353E-1
1.538252115E1,4.987287819E-1,6.577813625E-1,-1.808898896E-1
1.540242699E1,5.322836041E-1,2.729659677E-1,-1.888791323E-1
1.542230719E1,5.567839742E-1,-1.187734827E-1,-1.270956099E-1
1.544219844E1,5.381423831E-1,-4.364126623E-1,-2.263620123E-2
1.546205959E1,4.746944606E-1,-6.176354289E-1,4.773575440E-2
1.548197521E1,3.441368341E-1,-6.507242322E-1,7.223611325E-2
1.550184495E1,1.975341439E-1,-5.649063587E-1,6.637733430E-2
1.552178547E1,1.165764406E-1,-4.310864806E-1,7.010564953E-2
1.554163141E1,7.709623873E-2,-3.074528873E-1,7.649704814E-2
1.556155574E1,5.366111174E-2,-2.445375621E-1,6.531210244E-2
1.558146881E1,2.223674022E-2,-1.987325400E-1,3.974650800E-2
1.560134157E1,-9.786828421E-3,-1.443390697E-1,7.256899960E-3
1.562120219E1,3.608476743E-2,-9.001219273E-2,-3.928046674E-3
1.564109964E1,5.366111174E-2,-3.242303059E-2,1.258306485E-2
1.566099662E1,3.235645220E-2,1.551245619E-2,8.854749613E-3
1.568088219E1,2.489982173E-2,-5.792204756E-3,4.593817517E-3
1.570078777E1,5.845466256E-2,-5.479292199E-2,7.789516356E-3
1.572068037E1,8.135717362E-2,-1.006645188E-1,6.191667169E-3
1.574056282E1,6.058513001E-2,-1.715690941E-1,3.528584493E-3
1.576046490E1,3.235645220E-2,-2.632457018E-1,-7.323477184E-4
1.578035730E1,4.567186534E-2,-3.074528873E-1,-2.689713426E-2
1.580025657E1,4.780233279E-2,-2.616478503E-1,-4.820179567E-2
1.582012172E1,3.395430371E-2,-1.560566425E-1,-3.967992961E-2
1.584003615E1,-1.138467807E-2,-5.692338943E-2,-3.648423031E-2
1.585991402E1,-4.760260135E-2,-1.857500151E-2,-6.151720881E-2
1.587981178E1,-5.665707961E-2,-4.360797629E-2,-1.052583382E-1
1.589973360E1,-7.423342764E-2,-7.776200771E-2,-1.473350376E-1
1.591958485E1,-8.708280325E-2,-1.017297506E-1,-1.499981284E-1
1.593949553E1,-1.099853069E-1,-1.107842326E-1,-1.388131827E-1
1.595941287E1,-1.121157780E-1,-1.166430190E-1,-1.446719617E-1
1.597926672E1,-5.825493112E-2,-1.422086060E-1,-1.510633528E-1
1.599919396E1,1.258306485E-2,-1.800909638E-1,-1.468024254E-1
1.601908334E1,4.513924941E-2,-1.976673007E-1,-1.505307406E-1
1.603897511E1,7.070484012E-2,-2.099174857E-1,-1.713027805E-1
1.605883110E1,1.261635423E-1,-2.338852286E-1,-1.921414137E-1
1.607877329E1,2.221010923E-1,-2.418744713E-1,-1.910095960E-1
1.609862152E1,3.207017183E-1,-2.136458009E-1,-1.542590559E-1
1.611851469E1,3.611805737E-1,-1.779604852E-1,-1.420088708E-1
1.613842490E1,3.217669427E-1,-2.173741162E-1,-2.049241960E-1
1.615828277E1,2.268946320E-1,-3.618463576E-1,-3.487972319E-1
1.617818797E1,1.330875456E-1,-5.649063587E-1,-5.801525116E-1
1.619806933E1,7.656362653E-2,-7.993907928E-1,-8.087781668E-1
1.621796058E1,8.721595258E-2,-9.875375628E-1,-9.670984149E-1
1.623784782E1,9.573781490E-2,-1.010506630E0,-1.224019289E0
1.625775324E1,5.792204663E-2,-1.029148221E0,-1.533669233E0
1.627765990E1,4.567186534E-2,-1.205577493E0,-1.734066248E0
1.629754079E1,1.874144375E-1,-1.399050474E0,-1.972345471E0
1.631743454E1,3.579848707E-1,-1.564827323E0,-2.206297398E0
1.633731600E1,7.529200315E-1,-1.596784353E0,-2.231396914E0
1.635722344E1,1.161769748E0,-1.442192316E0,-2.227602005E0
1.637712605E1,1.439462662E0,-1.393191695E0,-2.381128788E0
1.639701501E1,1.713959932E0,-1.393191695E0,-2.545840263E0
1.641690152E1,2.027338266E0,-1.289264798E0,-2.578330040E0
1.643683584E1,2.270943642E0,-1.035007000E0,-2.432326555E0
1.645671089E1,2.434590101E0,-5.387415886E-1,-2.178068638E0
1.647659824E1,2.523071051E0,4.403406978E-1,-1.953171372E0
1.649649990E1,2.676531076E0,2.120346308E0,-1.835329890E0
1.651636386E1,2.910016775E0,4.451675415E0,-1.920082569E0
1.653624100E1,3.238841057E0,7.084198952E0,-2.119946957E0
1.655615698E1,3.685506582E0,9.693753242E0,-2.463218212E0
1.657606032E1,4.550076485E0,1.222281647E1,-3.246231079E0
1.659592032E1,5.617106915E0,1.324943447E1,-4.581367493E0
1.661580579E1,5.885212898E0,1.042769909E1,-3.957740068E0
1.663578011E1,1.838658810E0,5.237884045E0,-9.564461112E-1
1.665560152E1,-5.944732666E0,5.980351448E0,-3.797555864E-1
1.667551324E1,-1.029720783E1,7.017555237E0,-2.553829670E0
1.669540563E1,-1.213500118E1,2.440715075E0,-6.968621016E-1
1.671529282E1,-1.392585754E1,1.164166570E0,4.640421271E-1
1.673517193E1,-1.474562168E1,2.058030128E0,7.838117480E-1
1.675508907E1,-1.367958927E1,2.302101612E0,6.958634853E-1
1.677497126E1,-1.231036568E1,1.539927483E0,-4.207670391E-1
1.679486198E1,-1.038302612E1,1.940721422E-1,-1.375881553E0
1.681480485E1,-8.070338249E0,-1.149586201E0,-1.694119930E0
1.683463980E1,-6.027354717E0,-2.347240925E0,-1.321554661E0
1.685452896E1,-3.924118757E0,-2.750698090E0,-1.150451660E0
1.687443813E1,-2.161490917E0,-2.764080048E0,-1.329011321E0
1.689433428E1,-5.960644484E-1,-2.928725004E0,-1.593921542E0
1.691422605E1,4.843481481E-1,-3.606213331E0,-2.028802872E0
1.693408589E1,1.168693781E0,-4.418985844E0,-2.535720587E0
1.695399652E1,1.714492559E0,-4.757463932E0,-2.917340279E0
1.697386563E1,1.832267404E0,-4.815052986E0,-3.145966053E0
1.699380469E1,1.314763904E0,-4.474977493E0,-3.408745766E0
1.701365818E1,1.143660784E0,-3.319998503E0,-3.693895340E0
1.703354672E1,1.236935258E0,-2.081798315E0,-3.716331720E0
1.705344350E1,8.392704725E-1,-1.532271147E0,-3.239773035E0
1.707335329E1,1.810230315E-1,-1.054181218E0,-2.904557467E0
1.709322933E1,1.655771583E-1,8.162347972E-2,-3.165739298E0
1.711311006E1,7.055171728E-1,1.194525719E0,-3.395430326E0
1.713300777E1,8.819463849E-1,1.168427467E0,-3.020201921E0
1.715291824E1,7.060497403E-1,3.832841516E-1,-2.553297043E0
1.717282511E1,7.588453889E-1,-5.542540550E-1,-2.393911600E0
1.719273589E1,1.208639979E0,-1.306308627E0,-2.385922194E0
1.721257844E1,1.447984576E0,-1.515227437E0,-2.346508503E0
1.723249245E1,1.353112221E0,-1.486998677E0,-2.082131147E0
1.725238761E1,1.224152446E0,-1.397452593E0,-1.763360143E0
1.727227412E1,1.283805490E0,-1.119759679E0,-1.543788910E0
1.729214313E1,1.355242729E0,-6.603113413E-1,-1.348718166E0
1.731204693E1,1.316894293E0,-3.058550358E-1,-1.031078935E0
1.733194542E1,1.095126152E0,-1.480673850E-1,-6.787531376E-1
1.735183553E1,8.787506819E-1,-4.893414304E-2,-4.463326335E-1
1.737179021E1,7.966611385E-1,-3.455349803E-2,-3.493298590E-1
1.739163313E1,7.636389136E-1,-1.374150664E-1,-3.322861195E-1
1.741149938E1,6.953974366E-1,-2.786915898E-1,-3.274925649E-1
1.743143678E1,5.477294922E-1,-3.356815577E-1,-2.778926790E-1
1.745134704E1,3.900084496E-1,-2.503963411E-1,-1.915422082E-1
1.747119678E1,3.015275300E-1,-7.077141851E-2,-1.036604866E-1
1.749108610E1,2.988644540E-1,1.211036816E-1,-3.648423031E-2
1.751099042E1,2.716344297E-1,2.532591522E-1,1.364829857E-2
1.753090214E1,2.039921284E-1,2.468677461E-1,8.615072072E-2
1.755077469E1,1.075219586E-1,1.211036816E-1,1.442059278E-1
1.757066636E1,8.402025700E-2,6.191666797E-2,1.521951705E-1
1.759055037E1,8.029194176E-2,1.424083412E-1,1.660431921E-1
1.761045021E1,7.390054315E-2,2.798899710E-1,2.097843289E-1
1.763034407E1,5.792204663E-2,3.832841516E-1,2.305563688E-1
1.765020870E1,4.673709720E-2,4.238295853E-1,2.140452564E-1
1.767012990E1,2.809552103E-2,4.105141759E-1,2.220345140E-1
1.768998891E1,-3.215672076E-2,3.774253726E-1,2.470674813E-1
1.770988381E1,-9.134373069E-2,3.300225139E-1,2.598502934E-1
1.772980407E1,-1.291595101E-1,2.740311921E-1,2.518610358E-1
1.774976016E1,-1.563229412E-1,2.383458912E-1,2.337520719E-1
1.776958146E1,-1.659100503E-1,2.399437428E-1,2.172409594E-1
1.778948126E1,-1.771615744E-1,2.442046702E-1,1.959362924E-1
1.780936396E1,-1.830203533E-1,2.404763550E-1,1.655105799E-1
1.782926032E1,-1.947379112E-1,2.447372824E-1,1.335535944E-1
1.784913110E1,-1.968683749E-1,2.713681161E-1,1.111836955E-1
1.786902193E1,-1.798246503E-1,3.124461472E-1,7.969274372E-2
1.788893574E1,-1.222354919E-1,3.364138901E-1,5.199668556E-2
1.790885547E1,-6.837464124E-2,3.518597782E-1,2.856156044E-2
1.792876297E1,-5.505923182E-2,3.167071044E-1,2.003969625E-2
1.794862365E1,-6.784202904E-2,2.122476846E-1,3.814865649E-2
1.796851469E1,-7.423342764E-2,9.493889660E-2,5.679023638E-2
1.798836839E1,-5.718969926E-2,2.623136342E-2,5.732285231E-2
1.800829574E1,-4.227643460E-2,1.284937374E-2,2.270277962E-2
1.802817188E1,-3.801550344E-2,-6.864095479E-2,-3.808208182E-2
1.804804672E1,-1.511299331E-2,-2.301569134E-1,-1.238999143E-1
1.806793433E1,5.659050308E-3,-3.836836219E-1,-2.187722325E-1
1.808785688E1,2.223674022E-2,-4.758928418E-1,-3.104488552E-1
1.810775495E1,2.809552103E-2,-5.755587220E-1,-3.701018989E-1
1.812763730E1,1.531272475E-2,-7.114425302E-1,-4.026580751E-1
1.814754777E1,9.387366474E-3,-7.823470831E-1,-4.378107786E-1
1.816742344E1,5.525896326E-2,-7.482596040E-1,-5.060522556E-1
1.818728360E1,1.219026074E-1,-6.880073547E-1,-6.105116606E-1
1.820718100E1,1.661097705E-1,-6.970618367E-1,-7.314822078E-1
1.822709594E1,1.948710680E-1,-7.887384892E-1,-8.450626731E-1
1.824696974E1,2.066552043E-1,-8.985240459E-1,-9.543156624E-1
1.826687709E1,2.167749256E-1,-9.523848891E-1,-1.052916288E0
1.828681079E1,2.183727771E-1,-8.910674453E-1,-1.179212928E0
1.830667386E1,2.343512625E-1,-7.328137159E-1,-1.367359757E0
1.832655058E1,3.217669427E-1,-6.597787142E-1,-1.592323661E0
1.834644297E1,4.699009061E-1,-8.036517501E-1,-2.052304506E0
1.836632844E1,5.397402644E-1,-9.928637743E-1,-2.369411230E0
1.838621563E1,7.993242145E-1,-1.015300274E0,-2.436054707E0
1.840613839E1,1.185204864E0,-6.266899109E-1,-2.503697157E0
1.842601954E1,1.584401011E0,2.394111156E-1,-2.656158447E0
1.844593027E1,2.018283606E0,1.599114537E0,-2.923731804E0
1.846582667E1,2.520940542E0,3.334512234E0,-3.272861958E0
1.848578360E1,3.245764971E0,5.364180565E0,-3.675786257E0
1.850558506E1,4.202544212E0,7.631062984E0,-4.161332607E0
1.852547610E1,5.555789471E0,1.035413170E1,-4.792416573E0
1.854538428E1,6.792391777E0,1.349936485E1,-5.585016727E0
1.856528053E1,6.934667110E0,1.392738914E1,-4.089962006E0
1.858517032E1,4.530835629E0,8.915068626E0,6.238936782E-1
1.860504876E1,-1.581604719E0,7.890646935E0,1.897246599E0
1.862492339E1,-7.142920017E0,1.135458469E1,-3.345364332E0
1.864486808E1,-1.078701591E1,4.098351002E0,-3.594762087E0
1.866477068E1,-1.257527542E1,-1.451246858E0,-1.631204605E0
1.868460870E1,-1.471046829E1,-1.859497428E-1,-7.421345115E-1
1.870451907E1,-1.442691708E1,1.440794230E0,1.381340981E0
1.872440297E1,-1.305496311E1,3.257282972E0,1.062569976E0
1.874430198E1,-1.173733711E1,2.851628780E0,-9.505873322E-1
1.876419938E1,-9.642156601E0,1.695717871E-1,-2.181797028E0
1.878407219E1,-6.923814774E0,-2.396308184E0,-2.670006514E0
1.880395631E1,-4.631433487E0,-4.146619320E0,-2.358758688E0
1.882385370E1,-2.620939255E0,-4.403540134E0,-2.013356924E0
1.884377646E1,-1.209039450E0,-3.869991541E0,-1.864157796E0
1.886363969E1,-2.880123854E-1,-3.605148077E0,-1.820949316E0
1.888355521E1,3.755612075E-1,-3.754879713E0,-1.863625169E0
1.890341990E1,1.154845715E0,-3.622724295E0,-2.033596516E0
1.892331292E1,1.795516849E0,-3.179787159E0,-2.229799032E0
1.894323751E1,1.833332658E0,-2.889311314E0,-2.342247725E0
1.896310297E1,1.429342985E0,-2.637716770E0,-2.437119961E0
1.898300011E1,1.180943966E0,-2.166018248E0,-2.648169279E0
1.900291834E1,1.279011965E0,-1.998643517E0,-2.768074512E0
1.902279396E1,1.110039353E0,-2.299305439E0,-2.588449717E0
1.904266600E1,8.105092049E-1,-2.438385010E0,-2.465348721E0
1.906258860E1,7.908023596E-1,-1.968816996E0,-2.569275379E0
1.908247011E1,8.296833634E-1,-1.372419596E0,-2.671604395E0
1.910236709E1,5.888075829E-1,-1.234338760E0,-2.474403143E0
1.912225355E1,3.025927544E-1,-1.270556688E0,-2.131131887E0
1.914214667E1,3.324192762E-1,-9.396020770E-1,-1.903571367E0
1.916205344E1,5.386750102E-1,-2.248307467E-1,-1.970747709E0
1.918190933E1,7.470612526E-1,2.069215178E-1,-2.077337503E0
1.920180678E1,8.771528006E-1,8.322133124E-2,-2.011226416E0
1.922171115E1,9.991886020E-1,-3.607811034E-1,-1.803905606E0
1.924158579E1,1.213433623E0,-7.493248582E-1,-1.564028382E0
1.926148662E1,1.360568881E0,-8.974588513E-1,-1.360968351E0
1.928138334E1,1.341394663E0,-1.076551080E0,-1.138734102E0
1.930129855E1,1.142595530E0,-1.352646232E0,-8.722261190E-1
1.932117105E1,9.421986341E-1,-1.501911998E0,-6.110442877E-1
1.934108162E1,8.121070266E-1,-1.377745748E0,-4.031907022E-1
1.936094579E1,7.353436947E-1,-1.080812097E0,-2.262288630E-1
1.938083131E1,6.698318124E-1,-8.495233655E-1,-8.228924870E-2
1.940078350E1,5.925358534E-1,-6.858769059E-1,-2.103835158E-2
1.942068459E1,5.093811154E-1,-4.828168750E-1,-2.050573565E-2
1.944054266E1,4.187697470E-1,-2.296242863E-1,-2.050573565E-2
1.946044615E1,3.510608673E-1,2.889444493E-2,6.191667169E-3
1.948033063E1,2.967339754E-1,1.658434719E-1,5.412715301E-2
1.950019948E1,2.508623898E-1,1.892785877E-1,6.904041767E-2
1.952009318E1,2.258294076E-1,2.117150575E-1,5.892070010E-2
1.953997350E1,1.772947162E-1,2.889444530E-1,7.596442848E-2
1.955987193E1,8.881380409E-2,3.513271809E-1,1.463363916E-1
1.957977209E1,-4.460663069E-3,3.619794846E-1,2.167083472E-1
1.959966657E1,-6.304848194E-2,4.014596939E-1,2.199040353E-1
1.961956063E1,-9.294158220E-2,4.754934013E-1,1.874144375E-1
1.963946063E1,-1.350182891E-1,5.133757591E-1,1.761629134E-1
1.965934740E1,-1.787594110E-1,4.872775376E-1,1.895449013E-1
1.967921948E1,-2.171078026E-1,4.531235099E-1,2.076538652E-1
1.969913021E1,-2.479995638E-1,5.117778778E-1,2.145778835E-1
1.971902469E1,-2.506626546E-1,6.066502333E-1,2.284259051E-1
1.973890532E1,-2.165751904E-1,6.183677912E-1,2.284259051E-1
1.975881605E1,-2.277601361E-1,5.405392051E-1,1.895449013E-1
1.977874058E1,-2.613149881E-1,4.552539587E-1,1.564560980E-1
1.979860209E1,-2.789579034E-1,3.779579997E-1,1.697715074E-1
1.981847381E1,-2.938711643E-1,2.954024374E-1,1.745650619E-1
1.983837443E1,-3.386109471E-1,2.244978547E-1,1.383471340E-1
1.985827386E1,-3.866130114E-1,1.812893450E-1,1.095858440E-1
1.987815271E1,-4.404072762E-1,1.445388049E-1,1.340862066E-1
1.989804209E1,-5.182358623E-1,1.258972287E-1,1.553908736E-1
1.991795480E1,-5.614444017E-1,1.258972287E-1,1.266295761E-1
1.993782027E1,-5.699662566E-1,1.290929317E-1,7.383396477E-2
1.995774589E1,-5.662379265E-1,1.450714171E-1,3.069202602E-2
1.997760579E1,-5.278229713E-1,1.621151567E-1,2.163754590E-2
1.999752204E1,-4.511261880E-1,1.610499173E-1,2.909417637E-2
2.001741667E1,-3.807542324E-1,1.248319969E-1,4.187697172E-2
2.003729027E1,-3.338173926E-1,7.363422960E-2,5.945331976E-2
2.005718141E1,-2.960016131E-1,3.954677656E-2,6.797518581E-2
2.007705667E1,-2.597171366E-1,-2.123808302E-2,5.625762045E-2
2.009698808E1,-1.734332591E-1,-2.627131045E-1,5.625762045E-2
2.011687027E1,-5.133091658E-2,-4.156406224E-1,1.524614729E-2
2.013678933E1,8.322132751E-3,-4.641752839E-1,-6.258244067E-2
2.015663735E1,1.005313694E-1,-5.169043541E-1,-1.558569074E-1
2.017653865E1,2.029268891E-1,-6.075156927E-1,-2.501966059E-1
2.019642620E1,3.143103123E-1,-7.146382332E-1,-3.434710801E-1
2.021630605E1,4.358134568E-1,-7.759556770E-1,-4.601806700E-1
2.023622542E1,5.829487443E-1,-7.370746732E-1,-6.371424794E-1
2.025610089E1,7.647041678E-1,-6.480611563E-1,-8.599759340E-1
2.027600146E1,9.789491296E-1,-6.544525623E-1,-1.055046678E0
2.029587714E1,1.204379082E0,-6.266899109E-1,-1.259171963E0
2.031579219E1,1.473017573E0,-5.009258389E-1,-1.592856288E0
2.033566355E1,1.909030676E0,-5.280892849E-1,-2.260158062E0
2.035558251E1,2.328532696E0,-7.386725545E-1,-2.973864317E0
2.037547964E1,2.554495335E0,-9.507870674E-1,-3.409278393E0
2.039536938E1,2.731457233E0,-1.097922325E0,-3.624122381E0
2.041525870E1,2.919071436E0,-1.105911613E0,-3.724853516E0
2.043512803E1,3.172263861E0,-7.434660792E-1,-3.868194103E0
2.045505480E1,3.687104464E0,1.754305661E-1,-4.140560627E0
2.047492516E1,4.352275848E0,1.652908802E0,-4.604269981E0
2.049482146E1,5.054264545E0,3.504549980E0,-5.112785816E0
2.051477313E1,5.902789116E0,5.623764515E0,-5.331291676E0
2.053459047E1,6.654843807E0,7.909821033E0,-5.341411114E0
2.055451974E1,7.078606606E0,9.479508400E0,-4.998139858E0
2.057440542E1,6.025357246E0,9.330243111E0,-3.511607170E0
2.059429490E1,1.602576494E0,8.921992302E0,-1.695717812E0
2.061415870E1,-6.277817726E0,1.151556873E1,-3.200891972E0
2.063405829E1,-1.121397400E1,1.050233173E1,-7.365221024E0
2.065394834E1,-1.273885536E1,9.914656281E-1,-6.580143929E0
2.067383719E1,-1.543582535E1,-3.888699770E0,-3.423126221E0
2.069374136E1,-1.694852257E1,-1.122955322E0,-2.966008186E-1
2.071364136E1,-1.581910992E1,2.713081837E0,3.156218767E0
2.073350589E1,-1.350375938E1,5.513446331E0,3.058683395E0
2.075341126E1,-1.110418892E1,4.685161114E0,1.010306954E0
2.077332219E1,-8.879449844E0,1.191329956E0,2.641112208E-1
2.079319089E1,-6.248523712E0,-7.738252282E-1,-2.757622004E-1
2.081307672E1,-4.004610538E0,-1.456040382E0,-8.204957247E-1
2.083296860E1,-2.162556171E0,-1.899510264E0,-6.531209946E-1
2.085290610E1,-7.122414112E-1,-1.895249248E0,-5.833482146E-1
2.087279506E1,1.863491982E-1,-1.716689587E0,-8.796827197E-1
2.089267240E1,6.879407763E-1,-1.805703163E0,-1.306108832E0
2.091256678E1,9.885362387E-1,-2.204965830E0,-1.783666134E0
2.093245844E1,1.348318696E0,-2.744306564E0,-2.162090063E0
2.095232224E1,1.633468270E0,-3.456414938E0,-2.365150213E0
2.097222787E1,1.581737876E0,-4.231904507E0,-2.582590818E0
2.099210152E1,1.457571626E0,-4.729767799E0,-2.856022835E0
2.101200834E1,1.360036254E0,-4.739887714E0,-3.142237663E0
2.103191751E1,1.257707357E0,-4.744680882E0,-3.233381748E0
2.105180751E1,9.496552348E-1,-4.915251255E0,-3.052691460E0
2.107171183E1,6.047860384E-1,-4.820379257E0,-2.813413620E0
2.109156324E1,5.760247707E-1,-4.013398647E0,-2.756889582E0
2.111148542E1,7.236261368E-1,-2.732589006E0,-2.690246105E0
2.113137152E1,7.491917014E-1,-1.459768653E0,-2.341182470E0
2.115126407E1,5.983946323E-1,-6.234942079E-1,-1.922212958E0
2.117113501E1,5.797531009E-1,-9.161003679E-2,-1.750044703E0
2.119105068E1,7.812152505E-1,3.183049560E-1,-1.816688299E0
2.121092995E1,9.144359827E-1,3.816863000E-1,-1.832134247E0
2.123084162E1,9.624380469E-1,2.889444493E-2,-1.647715807E0
2.125073469E1,9.890688658E-1,-4.870778024E-1,-1.351913810E0
2.127063011E1,1.001851678E0,-8.910674453E-1,-1.106710553E0
2.129051407E1,1.027417302E0,-1.095791936E0,-9.378045201E-1
2.131037412E1,1.004514694E0,-1.035539627E0,-7.970606089E-1
2.133028813E1,9.789491296E-1,-6.757571697E-1,-6.515231729E-1
2.135016777E1,9.325449467E-1,-2.930722237E-1,-5.475963354E-1
2.137007454E1,8.456618786E-1,-1.187734827E-1,-5.438680649E-1
2.138996948E1,7.929328084E-1,-1.267627329E-1,-5.507920384E-1
2.140986615E1,6.932669878E-1,-2.392113954E-1,-5.380092263E-1
2.142976521E1,5.749595165E-1,-3.629115820E-1,-5.305526257E-1
2.144962615E1,4.624442756E-1,-4.465989470E-1,-5.246938467E-1
2.146953907E1,3.398759067E-1,-5.051867366E-1,-4.767583609E-1
2.148941652E1,2.189053893E-1,-5.153064728E-1,-3.663735688E-1
2.150933824E1,1.224352196E-1,-4.241624773E-1,-2.198374718E-1
2.152922480E1,4.407401755E-2,-2.290916741E-1,-9.294158220E-2
2.154909391E1,-1.511299331E-2,-7.449973375E-2,-5.033225939E-2
2.156900740E1,-6.091801450E-2,-3.721657768E-2,-5.619104207E-2
2.158889928E1,-1.115831584E-1,-6.065170467E-2,-5.619104207E-2
2.160883115E1,-1.515294015E-1,-3.561872989E-2,-3.541899845E-2
2.162872100E1,-1.888791323E-1,5.392742157E-2,-3.395430278E-3
2.164856725E1,-2.224339694E-1,1.333538592E-1,2.110492997E-2
2.166844600E1,-2.362820059E-1,1.487997323E-1,3.921389207E-2
2.168834141E1,-2.261622846E-1,1.392126381E-1,4.134435579E-2
2.170825126E1,-2.011293173E-1,1.567889899E-1,2.323539555E-2
2.172814792E1,-1.782267988E-1,1.866155118E-1,6.724283565E-3
2.174803412E1,-1.696383655E-1,2.047910541E-1,8.322132751E-3
2.176791292E1,-1.595186442E-1,1.935395300E-1,2.589847706E-2
2.178779297E1,-1.462032348E-1,1.658434719E-1,2.217016183E-2
2.180772402E1,-1.376813650E-1,1.530606747E-1,-8.788172156E-3
2.182764167E1,-1.275616586E-1,1.610499173E-1,-2.050573565E-2
2.184749027E1,-1.360835135E-1,1.546585262E-1,-1.358172111E-2
2.186739282E1,-1.392792165E-1,1.328212470E-1,-2.862813650E-3
2.188727042E1,-1.472684592E-1,1.029281393E-1,1.930734841E-3
2.190716829E1,-1.408770680E-1,6.138405204E-2,7.789516356E-3
2.192705495E1,-1.201050207E-1,-2.975994721E-2,1.897446252E-2
2.194694334E1,-9.880036116E-2,-1.422086060E-1,1.897446252E-2
2.196687730E1,-6.997249275E-2,-1.934063733E-1,5.659050308E-3
2.198679344E1,-3.268933669E-2,-1.752974093E-1,-2.370143496E-2
2.200661547E1,6.724283565E-3,-1.150451675E-1,-7.270215452E-2
2.202650537E1,4.194355011E-2,-4.467320815E-2,-1.345522404E-1
2.204641490E1,5.046541616E-2,-8.987903595E-3,-1.904769838E-1
2.206629704E1,5.898727849E-2,-3.881442919E-2,-2.603163123E-1
2.208618615E1,1.042596847E-1,-1.448716968E-1,-3.546560109E-1
2.210609188E1,1.527943611E-1,-2.941374779E-1,-4.532566369E-1
2.212598188E1,2.007964253E-1,-4.577838778E-1,-5.475963354E-1
2.214585068E1,2.577863932E-1,-6.390066743E-1,-6.649051309E-1
2.216581610E1,3.244300187E-1,-8.841434121E-1,-7.784190178E-1
2.218565042E1,4.512593448E-1,-1.244991064E0,-8.413343430E-1
2.220554662E1,6.372756362E-1,-1.715091705E0,-8.482583761E-1
2.222542495E1,8.291507363E-1,-2.192116499E0,-8.370068669E-1
2.224532699E1,1.016232252E0,-2.521007061E0,-8.573128581E-1
2.226521782E1,1.135671616E0,-2.651564837E0,-8.999221921E-1
2.228512605E1,1.138334632E0,-2.474602938E0,-9.702941179E-1
2.230500584E1,1.105778456E0,-1.973610520E0,-1.113101959E0
2.232488699E1,1.095658779E0,-1.417691946E0,-1.392392755E0
2.234483376E1,1.139399886E0,-9.385368824E-1,-1.744185925E0
2.236474376E1,1.240663528E0,-5.936676860E-1,-2.052837133E0
2.238458006E1,1.341394663E0,-2.440049350E-1,-2.297973871E0
2.240448636E1,1.476745844E0,2.202369273E-1,-2.573003769E0
2.242437761E1,1.678207994E0,7.905360460E-1,-2.942905903E0
2.244426224E1,1.986859322E0,1.462631464E0,-3.392234564E0
2.246413891E1,2.383924961E0,2.186457396E0,-3.867661476E0
2.248405719E1,2.961148024E0,2.984915972E0,-4.445416927E0
2.250392339E1,3.517599106E0,4.193755627E0,-5.394739628E0
2.252383834E1,3.609808445E0,5.874826908E0,-6.765095234E0
2.254372480E1,4.125247955E0,7.820807934E0,-8.015479088E0
2.256362344E1,4.955663681E0,9.287100792E0,-8.312878609E0
2.258352303E1,4.296350956E0,9.575979233E0,-6.985731602E0
2.260340834E1,-1.984662265E-1,7.980725765E0,-5.105329037E0
2.262330449E1,-6.366831303E0,5.894001007E0,-3.528717518E0
2.264316724E1,-8.237712860E0,5.286352158E0,-3.493498325E0
2.266307256E1,-1.087602901E1,1.278213024E0,-1.811362147E0
2.268297303E1,-1.360395813E1,-2.122343540E0,8.472597003E-1
2.270289495E1,-1.454788780E1,-1.202381730E0,3.141838312E0
2.272276157E1,-1.507131672E1,1.284604430E0,4.980097771E0
2.274265761E1,-1.470141411E1,3.949617863E0,5.095808506E0
2.276254688E1,-1.397013187E1,5.439346313E0,2.973930836E0
2.278244511E1,-1.275004005E1,3.618063927E0,7.790182233E-1
2.280230839E1,-9.626710892E0,9.834764004E-1,-8.919329047E-1
2.282219506E1,-5.861045361E0,-1.421952963E0,-1.741522789E0
2.284208698E1,-2.860283852E0,-3.474523783E0,-1.216562748E0
2.286200834E1,-3.194367588E-1,-4.210067272E0,-1.152049541E0
2.288186438E1,1.469821811E0,-4.199414730E0,-1.639726520E0
2.290179199E1,2.216017485E0,-4.329972744E0,-1.897712588E0
2.292168448E1,2.274139404E0,-4.361463547E0,-2.066685200E0
2.294155037E1,2.338119984E0,-3.762869120E0,-2.195112467E0
2.296144454E1,2.193647623E0,-2.812548161E0,-2.143448591E0
2.298136224E1,1.725144863E0,-2.103635550E0,-2.037857294E0
2.300125146E1,1.286468625E0,-1.781202793E0,-2.062424183E0
2.302113949E1,9.651011229E-1,-1.733733296E0,-2.170612097E0
2.304103303E1,6.601781845E-1,-1.922945380E0,-2.132729769E0
2.306090688E1,3.356149793E-1,-2.134061098E0,-1.954236507E0
2.308082928E1,1.879470497E-1,-1.970947385E0,-1.908897638E0
2.310072495E1,2.466014475E-1,-1.690058827E0,-2.030400753E0
2.312059928E1,1.858165860E-1,-1.682069540E0,-2.098109484E0
2.314049292E1,-2.097177505E-2,-1.850509524E0,-2.020813704E0
2.316038094E1,8.854749613E-3,-1.842520237E0,-1.833199501E0
2.318029141E1,1.911427528E-1,-1.731602907E0,-1.680804610E0
2.320016282E1,3.292235732E-1,-1.827007771E0,-1.513429761E0
2.322003615E1,4.795545936E-1,-1.935794711E0,-1.331141829E0
2.323993589E1,7.108433247E-1,-1.904303789E0,-1.192528367E0
2.325982693E1,9.341427684E-1,-1.820083737E0,-1.131810069E0
2.327976391E1,1.106843710E0,-1.756702423E0,-1.089666843E0
2.329964094E1,1.106311083E0,-1.779604912E0,-1.003849030E0
2.331952938E1,9.544488192E-1,-1.838259339E0,-8.637042642E-1
2.333942532E1,7.124411464E-1,-1.789191961E0,-7.442650199E-1
2.335931636E1,5.349466801E-1,-1.515227437E0,-6.739596128E-1
2.337920563E1,5.434685946E-1,-1.042996287E0,-5.860112906E-1
2.339908860E1,5.328162313E-1,-5.489279032E-1,-4.537892640E-1
2.341897402E1,4.166392684E-1,-1.480673850E-1,-3.301556706E-1
2.343887730E1,3.953346014E-1,-3.987966105E-2,-2.054568231E-1
2.345879224E1,4.896743000E-1,-1.288931966E-1,-1.281608492E-1
2.347866636E1,4.886090755E-1,3.155753016E-2,-1.526612043E-1
2.349854131E1,4.187697470E-1,2.708354890E-1,-1.446719617E-1
2.351845334E1,3.185712397E-1,4.003944695E-1,-1.731003635E-2
2.353834136E1,2.711018026E-1,4.312862158E-1,1.154446304E-1
2.355824199E1,2.657756507E-1,4.248948097E-1,8.774857223E-2
2.357811292E1,1.916753650E-1,4.632432163E-1,-3.395430278E-3
2.359800271E1,9.573781490E-2,4.733629227E-1,2.962679416E-2
2.361789016E1,2.969337068E-2,4.115794003E-1,9.200949967E-2
2.363779740E1,-8.188978769E-3,3.630447388E-1,6.744256616E-2
2.365770407E1,-4.280905053E-2,3.662404418E-1,3.122464381E-2
2.367758896E1,-7.476603985E-2,4.137098789E-1,5.679023638E-2
2.369749053E1,-1.078548431E-1,5.069843531E-1,1.197055578E-1
2.371738105E1,-1.456706226E-1,5.789541602E-1,1.649779677E-1
2.373727053E1,-1.707035899E-1,6.114437580E-1,1.831535101E-1
2.375713995E1,-1.734332591E-1,6.311505437E-1,1.922079772E-1
2.377705042E1,-1.621817350E-1,6.066502333E-1,1.750976741E-1
2.379697193E1,-1.589860320E-1,5.314847231E-1,1.681736708E-1
2.381686074E1,-1.584534049E-1,4.302209914E-1,1.815556586E-1
2.383676172E1,-1.611164957E-1,3.758275211E-1,1.543256342E-1
2.385662480E1,-1.579207927E-1,3.934704363E-1,1.090532318E-1
2.387650745E1,-1.238333359E-1,3.961335421E-1,1.015966013E-1
2.389640402E1,-8.548495173E-2,3.550554812E-1,8.987903595E-2
2.391629917E1,-8.495233208E-2,3.124461472E-1,4.027912393E-2
2.393616152E1,-1.169093251E-1,2.740311921E-1,-1.038602181E-2
2.395607584E1,-1.467358470E-1,2.553896308E-1,-4.993279930E-3
2.397595922E1,-1.467358470E-1,2.197043151E-1,2.802894451E-2
2.399584657E1,-1.094526947E-1,1.482671201E-1,2.643109486E-2
2.401580865E1,-7.050511241E-2,6.404713541E-2,4.061201122E-3
2.403564797E1,-4.813521728E-2,9.653674439E-3,-6.591129117E-3
2.405554198E1,-3.801550344E-2,-2.177070081E-2,-2.529928461E-2
2.407541412E1,-2.470009029E-2,-9.480573982E-2,-9.134373069E-2
2.409532490E1,-1.351514366E-2,-2.786915898E-1,-1.792920381E-1
2.411522563E1,9.387366474E-3,-5.248935819E-1,-2.491313666E-1
2.413511245E1,6.058513001E-2,-7.908689380E-1,-3.045900762E-1
2.415498454E1,1.309570819E-1,-1.041398406E0,-3.941362202E-1
2.417487735E1,2.199706137E-1,-1.234871387E0,-5.438680649E-1
2.419480766E1,2.956687510E-1,-1.368624687E0,-7.592448592E-1
2.421466495E1,3.441368341E-1,-1.454442501E0,-1.009175181E0
2.423453954E1,3.819526136E-1,-1.511499047E0,-1.260237217E0
2.425447626E1,4.113130867E-1,-1.636197925E0,-1.538462758E0
2.427432735E1,3.974650800E-1,-1.764691710E0,-1.802307725E0
2.429421141E1,4.667052329E-1,-1.706037283E0,-2.251103640E0
2.431410563E1,4.214328229E-1,-1.567490339E0,-3.034049988E0
2.433401824E1,3.382780552E-1,-1.586664557E0,-3.520129204E0
2.435390324E1,3.857475221E-1,-1.537064672E0,-3.857541561E0
2.437381563E1,5.642406344E-1,-1.251382470E0,-4.326044559E0
2.439371719E1,9.555140138E-1,-6.885399818E-1,-4.878767014E0
2.441360021E1,1.354710102E0,-5.053199083E-2,-5.253995419E0
2.443347011E1,1.728873253E0,5.997262001E-1,-5.363248348E0
2.445341985E1,2.197908640E0,1.346987128E0,-5.202331543E0
2.447326777E1,2.706424236E0,2.534522295E0,-4.916649818E0
2.449316230E1,3.292169333E0,4.386696339E0,-4.695946693E0
2.451305089E1,4.091693401E0,6.720688343E0,-4.641619682E0
2.453296094E1,5.036687851E0,9.108008385E0,-4.692750931E0
2.455287891E1,6.016303062E0,1.121550560E1,-4.502473831E0
2.457276037E1,6.159177303E0,1.162961483E1,-3.363473177E0
2.459262256E1,4.773375988E0,8.900088310E0,-3.381448984E-1
2.461250209E1,8.904682398E-1,6.138138771E0,1.569487691E0
2.463239329E1,-5.497534275E0,6.809701920E0,-1.776209474E0
2.465231209E1,-1.017623806E1,5.715441227E0,-5.837676525E0
2.467219459E1,-1.361141396E1,-5.862110257E-1,-5.830153465E0
2.469207521E1,-1.546518612E1,-4.106140614E0,-3.149161816E0
2.471198355E1,-1.494921398E1,-2.002371788E0,1.420221925E0
2.473187240E1,-1.443810177E1,3.199693680E0,4.818115711E0
2.475177053E1,-1.255656719E1,6.965891838E0,4.674708366E0
2.477167136E1,-1.021139050E1,5.625895023E0,2.971267700E0
2.479156386E1,-8.385314941E0,1.959962130E0,1.617955804E0
2.481145105E1,-6.314102173E0,-8.362079412E-2,6.068499088E-1
2.483132876E1,-4.459797859E0,-7.066489458E-1,4.933360592E-2
2.485122980E1,-3.043104410E0,-1.101118088E0,2.545241117E-1
2.487110589E1,-1.652509332E0,-1.274284959E0,2.268280536E-1
2.489099516E1,-7.421345115E-1,-1.436866164E0,-3.195033371E-1
2.491090563E1,-3.306216896E-1,-1.666091084E0,-8.332785368E-1
2.493078917E1,-9.507204592E-2,-1.936859965E0,-1.146723390E0
2.495068058E1,1.895449013E-1,-2.206031084E0,-1.375349045E0
2.497058001E1,3.388106823E-1,-2.527931213E0,-1.616824031E0
2.499045141E1,3.494630158E-1,-2.704892874E0,-1.920082569E0
2.501035803E1,3.739633560E-1,-2.619075060E0,-2.184992552E0
2.503023792E1,4.496614933E-1,-2.688914537E0,-2.199373245E0
2.505015136E1,3.478651643E-1,-3.024662495E0,-2.077870131E0
2.507003553E1,2.497971505E-1,-3.145699739E0,-2.038389921E0
2.508991922E1,4.619116783E-1,-2.636651516E0,-2.070946217E0
2.510983672E1,6.181014776E-1,-1.986393332E0,-2.083196402E0
2.512972928E1,5.173703432E-1,-1.853705168E0,-1.873744845E0
2.514966396E1,2.450035959E-1,-1.935794711E0,-1.734598875E0
2.516949480E1,2.519276142E-1,-1.790257215E0,-1.871081829E0
2.518940188E1,6.927343607E-1,-1.407572269E0,-1.981932640E0
2.520928230E1,1.021558523E0,-1.070692301E0,-1.802840352E0
2.522916006E1,1.122289538E0,-9.513196945E-1,-1.427611947E0
2.524906360E1,1.070625782E0,-9.172322154E-1,-1.084340692E0
2.526898183E1,9.027184248E-1,-7.834123373E-1,-9.238899350E-1
2.528885699E1,8.830115795E-1,-5.595802069E-1,-8.706282377E-1
2.530881209E1,9.437964559E-1,-4.241624773E-1,-7.245581746E-1
2.532864615E1,9.144359827E-1,-3.985968828E-1,-4.975304008E-1
2.534851287E1,9.021857977E-1,-4.636426866E-1,-3.147097826E-1
2.536844469E1,8.915334344E-1,-7.013227940E-1,-2.006632686E-1
2.538833396E1,7.908023596E-1,-7.621076703E-1,-2.017285079E-1
2.540822605E1,7.599105835E-1,-5.579823852E-1,-3.125793040E-1
2.542810683E1,7.182999253E-1,-3.532578945E-1,-3.738302290E-1
2.544801230E1,5.989272594E-1,-2.312221378E-1,-3.685040474E-1
2.546789782E1,4.368786812E-1,-1.912759095E-1,-3.551886380E-1
2.548780136E1,2.780258060E-1,-2.978657782E-1,-3.019269705E-1
2.550764964E1,1.623814553E-1,-4.593817294E-1,-2.352833450E-1
2.552757063E1,1.021292135E-1,-5.035889149E-1,-1.840855777E-1
2.554747344E1,8.615072072E-2,-4.652405083E-1,-1.414762586E-1
2.556732870E1,8.348763734E-2,-6.027221680E-1,-1.356174797E-1
2.558722777E1,6.537867337E-2,-8.468602300E-1,-1.191063672E-1
2.560713532E1,7.709623873E-2,-1.073355436E0,-1.009974033E-1
2.562702303E1,7.336792350E-2,-1.174086571E0,-8.548495173E-2
2.564692657E1,6.218297780E-2,-1.137336016E0,-6.577813625E-2
2.566684485E1,3.342168778E-2,-1.057376981E0,-7.163692266E-2
2.568668568E1,-1.797580742E-3,-9.406673312E-1,-1.073888019E-1
2.570658751E1,-2.842840552E-2,-7.535858154E-1,-1.329544038E-1
2.572648266E1,-5.985277891E-2,-5.216978788E-1,-9.993217140E-2
2.574639704E1,-8.388710022E-2,-2.946700752E-1,-1.517957076E-2
2.576627646E1,-9.134373069E-2,-9.107742459E-2,3.282249346E-2
2.578616047E1,-8.015878499E-2,3.635107726E-2,1.418091450E-2
2.580605344E1,-6.784202904E-2,2.410089783E-2,-7.190322969E-3
2.582594157E1,-4.866783321E-2,-9.054480493E-2,-9.320789017E-3
2.584584594E1,-5.772231519E-2,-2.056565434E-1,-1.890788600E-2
2.586577547E1,-7.210296392E-2,-2.877460718E-1,-5.459319428E-2
2.588563204E1,-6.784202904E-2,-3.367467821E-1,-1.015300229E-1
2.590551902E1,-5.239614844E-2,-3.479317427E-1,-1.292260885E-1
2.592540527E1,-3.588503599E-2,-3.298227787E-1,-1.191063672E-1
2.594528235E1,-3.748288751E-2,-2.551898956E-1,-1.212368309E-1
2.596519480E1,-4.706998542E-2,-1.225017980E-1,-1.654440016E-1
2.598508886E1,-4.121120274E-2,-2.816209756E-2,-2.240983993E-1
2.600498376E1,-2.416747436E-2,-4.840152711E-2,-2.805557549E-1
2.602489334E1,-8.721595630E-3,-1.491326243E-1,-3.264273405E-1
2.604477730E1,-8.188978769E-3,-2.589181960E-1,-3.679714203E-1
2.606464652E1,-3.481980413E-2,-3.378120363E-1,-4.282236695E-1
2.608452485E1,-9.187635034E-2,-4.188362956E-1,-5.289547443E-1
2.610441714E1,-1.456706226E-1,-5.531888008E-1,-6.691660881E-1
2.612432100E1,-1.846182048E-1,-7.455965281E-1,-8.535845280E-1
2.614422542E1,-2.011293173E-1,-9.672981501E-1,-1.080612302E0
2.616411396E1,-2.016619295E-1,-1.210903645E0,-1.355109572E0
2.618398813E1,-2.016619295E-1,-1.468357205E0,-1.639193892E0
2.620389829E1,-2.314884514E-1,-1.700178504E0,-1.860429525E0
2.622380172E1,-2.405429333E-1,-1.782800674E0,-2.043782711E0
2.624365912E1,-1.584534049E-1,-1.534934163E0,-2.315550327E0
2.626357001E1,2.436720580E-2,-8.788172603E-1,-2.762748480E0
2.628344985E1,3.270931244E-1,7.097115368E-2,-3.350690365E0
2.630336063E1,7.801500559E-1,1.043195963E0,-3.884705067E0
2.632322193E1,1.248652816E0,1.645984769E0,-4.083570957E0
2.634313251E1,1.710231662E0,1.660365343E0,-3.910869837E0
2.636303542E1,2.168081999E0,1.207308531E0,-3.580914021E0
2.638295475E1,2.513484001E0,7.249576449E-1,-3.358147144E0
2.640284412E1,2.714946032E0,6.914027929E-1,-3.365071058E0
2.642275131E1,2.963278532E0,1.307506919E0,-3.414071798E0
2.644259433E1,3.219134092E0,2.439117432E0,-3.377321243E0
2.646251115E1,3.479783297E0,3.933106661E0,-3.262209654E0
2.648239542E1,3.815065384E0,5.831085682E0,-3.213142157E0
2.650227792E1,4.266458035E0,8.059020042E0,-3.309079885E0
2.652219126E1,4.443419933E0,9.787028313E0,-3.068736553E0
2.654207980E1,4.137498379E0,9.818452835E0,-1.853971481E0
2.656196240E1,3.391302586E0,8.514207840E0,-4.943346977E-1
2.658184506E1,1.140997767E0,7.435459614E0,-2.155765295E-1
2.660176219E1,-3.579249620E0,7.024479389E0,-7.821473479E-1
2.662166235E1,-8.655550957E0,6.019764900E0,-1.856634617E0
2.664153172E1,-1.178533840E1,2.167283058E0,-2.783054352E0
2.666144704E1,-1.280177116E1,-1.229012609E0,-6.531209946E-1
2.668132407E1,-1.231675720E1,7.553167939E-1,2.259692192E0
2.670120245E1,-1.155777836E1,4.656932354E0,3.550088882E0
2.672108610E1,-1.028602314E1,5.870565891E0,3.143968582E0
2.674099334E1,-9.529707909E0,3.828647137E0,2.043316603E0
2.676089594E1,-8.704618454E0,1.115099192E0,1.149453044E0
2.678080912E1,-6.990458488E0,-4.428040385E-1,7.854096293E-1
2.680070683E1,-5.644137383E0,-8.036517501E-1,3.936701715E-1
2.682055318E1,-4.605801105E0,-9.758200049E-1,1.911427528E-1
2.684044626E1,-3.475855350E0,-1.458703518E0,1.303578913E-1
2.686036360E1,-2.352833509E0,-1.977338791E0,-1.654440016E-1
2.688025183E1,-1.369423628E0,-2.327001572E0,-5.513246655E-1
2.690012886E1,-7.522542477E-1,-2.521007061E0,-9.276182055E-1
2.692001225E1,-2.469343245E-1,-2.717143059E0,-1.356174827E0
2.693990641E1,2.657756507E-1,-3.039109707E0,-1.850243211E0
2.695981042E1,7.049845457E-1,-3.503884315E0,-2.334258556E0
2.697972756E1,1.005579948E0,-3.935037374E0,-2.760617971E0
2.699959938E1,1.152715325E0,-4.250080109E0,-3.075128078E0
2.701949480E1,1.006645203E0,-4.383833408E0,-3.290970802E0
2.703938771E1,8.307486176E-1,-4.167990685E0,-3.502020121E0
2.705927969E1,7.486590743E-1,-3.686172247E0,-3.637437820E0
2.707916917E1,4.997940063E-1,-3.098762751E0,-3.617198467E0
2.709903324E1,1.469355822E-1,-2.494376183E0,-3.399158478E0
2.711896829E1,5.685681105E-2,-1.970414758E0,-3.143302917E0
2.713886803E1,5.419373140E-2,-1.582936287E0,-3.016473532E0
2.715878235E1,8.508548886E-2,-1.376680493E0,-2.894437790E0
2.717862183E1,1.245656833E-1,-1.359037638E0,-2.554894924E0
2.719852912E1,1.171090528E-1,-1.422485590E0,-2.161024809E0
2.721843480E1,9.094426781E-2,-1.517890453E0,-1.843319178E0
2.723829162E1,1.149785891E-1,-1.537064672E0,-1.612030506E0
2.725817308E1,1.426746547E-1,-1.383604527E0,-1.434003353E0
2.727809011E1,1.666423976E-1,-1.078681588E0,-1.301248670E0
2.729797683E1,1.900775135E-1,-8.271534443E-1,-1.162169218E0
2.731785282E1,2.247641683E-1,-6.901378632E-1,-1.035872579E0
2.733775485E1,2.631125450E-1,-5.915372372E-1,-9.399349689E-1
2.735765803E1,2.833519876E-1,-4.806863964E-1,-8.364742398E-1
2.737753631E1,3.105820119E-1,-3.996621072E-1,-6.941990256E-1
2.739746188E1,3.148429394E-1,-3.954011798E-1,-5.603791475E-1
2.741733751E1,3.420063853E-1,-4.060535133E-1,-4.665720761E-1
2.743721870E1,3.760938346E-1,-3.682377338E-1,-3.840165138E-1
2.745709620E1,3.878779709E-1,-2.637783289E-1,-2.960681915E-1
2.747700115E1,3.521260917E-1,-1.182408631E-1,-1.990654171E-1
2.749691943E1,2.822867632E-1,2.356828004E-2,-1.105845049E-1
2.751679688E1,1.895449013E-1,1.290929317E-1,-3.701684624E-2
2.753670865E1,1.075219586E-1,2.271609455E-1,5.126433913E-3
2.755658412E1,5.685681105E-2,3.135114014E-1,9.919982404E-3
2.757648501E1,1.904104091E-2,3.364138901E-1,1.398118329E-3
2.759636678E1,-2.896102332E-2,3.103156984E-1,-3.395430278E-3
2.761626162E1,-6.677679718E-2,2.655093372E-1,-1.264964230E-3
2.763612480E1,-1.099853069E-1,2.372806519E-1,1.471353136E-2
2.765602329E1,-1.424749196E-1,2.367480397E-1,6.211639941E-2
2.767594219E1,-1.637795717E-1,2.788247466E-1,1.069227681E-1
2.769583313E1,-1.926074475E-1,3.571859598E-1,1.143793985E-1
2.771575860E1,-2.064554691E-1,4.648410678E-1,1.085206121E-1
2.773561485E1,-2.250970602E-1,6.173025370E-1,1.047922969E-1
2.775550495E1,-2.559888065E-1,7.750901580E-1,1.287600398E-1
2.777543709E1,-2.640446424E-1,8.523861766E-1,1.756303012E-1
2.779527402E1,-2.704360485E-1,8.731582165E-1,2.076538652E-1
2.781515896E1,-2.725664973E-1,8.790169954E-1,2.289585173E-1
2.783506589E1,-2.672403455E-1,8.609080315E-1,2.465348691E-1
2.785496698E1,-2.559888065E-1,7.953296304E-1,2.209692746E-1
2.787489350E1,-2.495974153E-1,6.727612019E-1,1.719019860E-1
2.789479907E1,-2.522605062E-1,5.288216472E-1,1.612496525E-1
2.791464016E1,-2.586518824E-1,4.339492917E-1,1.681736708E-1
2.793452662E1,-2.816209793E-1,4.232969582E-1,1.575213373E-1
2.795442667E1,-2.938711643E-1,4.509930313E-1,1.303578913E-1
2.797430214E1,-3.130453527E-1,4.009270668E-1,8.129059523E-2
2.799421428E1,-3.466002047E-1,2.154433727E-1,4.507267103E-2
2.801411219E1,-3.993957937E-1,1.178414002E-2,2.802894451E-2
2.803400407E1,-4.660394490E-1,-7.183665037E-2,1.577876508E-2
2.805388990E1,-4.963985980E-1,-7.882724702E-2,1.418091450E-2
2.807378844E1,-4.745613039E-1,-1.251648813E-1,-9.853405878E-3
2.809365152E1,-4.345484972E-1,-2.344178408E-1,-1.196389869E-1
2.811355443E1,-4.148416817E-1,-3.378120363E-1,-2.730991244E-1
2.813344797E1,-3.993957937E-1,-3.868793249E-1,-4.330172241E-1
2.815332855E1,-3.727649748E-1,-3.943359554E-1,-6.094464660E-1
2.817322813E1,-3.205019832E-1,-4.044556618E-1,-8.023867607E-1
2.819311620E1,-2.187056541E-1,-4.380105138E-1,-9.761528969E-1
2.821299751E1,-3.908073530E-2,-4.604469836E-1,-1.174419403E0
2.823290959E1,2.194380015E-1,-4.268255532E-1,-1.454775453E0
2.825282146E1,5.647732615E-1,-4.065861404E-1,-1.959562778E0
2.827268891E1,8.302159905E-1,-3.799552917E-1,-2.554362297E0
2.829259480E1,1.223087192E0,-4.044556618E-1,-2.953558207E0
2.831247928E1,1.705970645E0,-3.436708152E-1,-3.343233824E0
2.833235126E1,2.129134417E0,-2.109827101E-1,-3.761071444E0
2.835226386E1,2.515614271E0,-3.295564651E-2,-4.114462376E0
2.837215907E1,2.904158115E0,1.796914935E-1,-4.397481441E0
2.839206797E1,3.315604448E0,5.543872118E-1,-4.654402733E0
2.841193881E1,3.754280567E0,1.167894840E0,-4.856397152E0
2.843182422E1,4.163596630E0,1.979136348E0,-4.941682339E0
2.845176282E1,4.613990307E0,2.990774870E0,-4.917182446E0
2.847161230E1,5.075569153E0,4.118590355E0,-4.782297134E0
2.849149204E1,5.286085606E0,4.828035355E0,-4.552606106E0
2.851142667E1,5.522767067E0,5.016715050E0,-4.742351055E0
2.853129563E1,5.796731949E0,4.951669216E0,-5.161253929E0
2.855119542E1,4.160933495E0,4.934092999E0,-3.742962599E0
2.857109115E1,-1.739858389E0,5.352463245E0,-1.168560624E0
2.859097402E1,-8.494567871E0,5.844400883E0,-1.020360112E0
2.861087657E1,-1.208060837E1,3.960270166E0,-1.799111962E0
2.863077626E1,-1.448603725E1,-4.214994013E-1,-3.914731443E-1
2.865067110E1,-1.398344707E1,-2.223074675E0,3.176990986E0
2.867053537E1,-1.266428947E1,2.703028917E-1,6.306778908E0
2.869044995E1,-1.225384140E1,3.893093824E0,7.064159393E0
2.871032995E1,-1.110418892E1,5.111587048E0,5.737012386E0
2.873022469E1,-9.590426445E0,3.383579493E0,3.823520899E0
2.875011355E1,-7.630597115E0,1.360302567E0,2.437186480E0
2.877000949E1,-5.916503906E0,4.099815488E-1,1.618488431E0
2.878987808E1,-4.979431629E0,2.282261699E-1,7.949967384E-1
2.880980329E1,-4.062199593E0,-2.551898956E-1,3.483312130E-1
2.882972506E1,-2.727529049E0,-1.242328048E0,3.649088740E-1
2.884956881E1,-1.641257763E0,-2.258227348E0,2.614481449E-1
2.886948230E1,-8.726921678E-1,-2.858952284E0,3.708342463E-2
2.888937771E1,-3.359478712E-1,-2.936181784E0,-2.006632686E-1
2.890925969E1,-3.695027158E-2,-2.684120893E0,-5.812177658E-1
2.892915824E1,1.400115639E-1,-2.503430843E0,-9.766855240E-1
2.894903527E1,2.962013483E-1,-2.599900961E0,-1.268226504E0
2.896893214E1,4.017260075E-1,-2.820004702E0,-1.494788289E0
2.898884589E1,2.935382724E-1,-2.981520653E0,-1.697848320E0
2.900872896E1,2.242315561E-1,-3.003890514E0,-1.911028028E0
2.902860678E1,2.919404209E-1,-2.931920767E0,-2.046445847E0
2.904848350E1,4.240958989E-1,-2.657956123E0,-2.103435755E0
2.906840490E1,6.612433791E-1,-2.179866314E0,-2.112490177E0
2.908827719E1,7.364088893E-1,-1.752974153E0,-2.038389921E0
2.910819438E1,6.703644395E-1,-1.375615239E0,-1.901440978E0
2.912806318E1,7.631062865E-1,-9.933964014E-1,-1.802307725E0
2.914797344E1,8.665004969E-1,-6.725615263E-1,-1.805503368E0
2.916784553E1,8.808811307E-1,-6.406044960E-1,-1.825210214E0
2.918774709E1,7.769543529E-1,-9.619719982E-1,-1.692522168E0
2.920764584E1,6.426018476E-1,-1.354776621E0,-1.437731743E0
2.922753620E1,5.424033403E-1,-1.533869028E0,-1.254378438E0
2.924742740E1,4.533897936E-1,-1.488596559E0,-1.222421527E0
2.926732834E1,3.713002801E-1,-1.382006645E0,-1.197854519E0
2.928721126E1,3.281583488E-1,-1.266828418E0,-1.047590137E0
2.930709902E1,3.372128308E-1,-1.095259309E0,-8.434648514E-1
2.932699730E1,3.324192762E-1,-8.665670753E-1,-7.155036926E-1
2.934691480E1,2.796236575E-1,-6.293529868E-1,-6.536536217E-1
2.936678698E1,1.884796619E-1,-4.428040385E-1,-5.982614756E-1
2.938666443E1,8.828118443E-2,-3.005288541E-1,-5.577160716E-1
2.940657396E1,4.567186534E-2,-2.003303915E-1,-5.316178799E-1
2.942647344E1,4.886756465E-2,-1.145125479E-1,-4.858128428E-1
2.944635355E1,8.828118443E-2,-6.011908874E-2,-3.882774413E-1
2.946622922E1,1.197721362E-1,-4.999937490E-2,-2.613815665E-1
2.948613657E1,1.810230315E-1,-1.203713343E-1,-1.185737476E-1
2.950604803E1,2.508623898E-1,-1.822214276E-1,-2.956021577E-2
2.952592063E1,2.615146935E-1,-7.343450189E-2,-1.731003635E-2
2.954579271E1,2.268946320E-1,1.344190985E-1,-2.636451647E-2
2.956576074E1,1.693054736E-1,2.426068187E-1,5.126433913E-3
2.958560855E1,1.389463395E-1,2.495308369E-1,5.625762045E-2
2.960547485E1,1.064567268E-1,2.516613007E-1,6.744256616E-2
2.962540094E1,7.230269164E-2,2.804225981E-1,4.454005510E-2
2.964527990E1,4.034570232E-2,3.215006292E-1,2.909417637E-2
2.966516777E1,1.584534161E-2,3.550554812E-1,3.175725788E-2
2.968504391E1,1.151783206E-2,3.614468873E-1,4.027912393E-2
2.970496652E1,8.854749613E-3,3.204354048E-1,8.075797558E-2
2.972484646E1,-2.523270808E-2,2.623136342E-1,1.010639817E-1
2.974478350E1,-7.689651102E-2,2.713681161E-1,7.276873291E-2
2.976460370E1,-1.233007237E-1,3.358812928E-1,4.294220731E-2
2.978450756E1,-1.435401440E-1,3.657078147E-1,2.483324520E-2
2.980440485E1,-1.419423074E-1,3.475988507E-1,-3.928046674E-3
2.982431209E1,-1.350182891E-1,2.916075289E-1,-1.411433797E-2
2.984420532E1,-1.392792165E-1,2.298240215E-1,6.191667169E-3
2.986410126E1,-1.424749196E-1,1.940721422E-1,1.950708032E-2
2.988395016E1,-1.344856620E-1,1.701043993E-1,2.483324520E-2
2.990385100E1,-1.169093251E-1,1.567889899E-1,4.081173986E-2
2.992376657E1,-9.240896255E-2,1.519954354E-1,7.223611325E-2
2.994368693E1,-3.481980413E-2,1.269624680E-1,1.143793985E-1
2.996352881E1,7.789516356E-3,6.830807030E-2,1.895449013E-1
2.998345438E1,4.460663348E-2,-4.660394625E-4,1.479342431E-1
3.000330902E1,1.037270650E-1,-6.278216839E-2,-1.009974033E-1
3.002322917E1,1.783599555E-1,-2.083196342E-1,-3.535907865E-1
3.004311969E1,2.636451721E-1,-4.652405083E-1,-5.193676949E-1
3.006298943E1,3.585174978E-1,-7.290854454E-1,-6.712965369E-1
3.008290001E1,4.507267177E-1,-9.236236215E-1,-9.228246808E-1
3.010278688E1,5.370771885E-1,-1.034474373E0,-1.247987032E0
3.012265100E1,7.167021036E-1,-1.084007740E0,-1.680271983E0
3.014256006E1,8.691635728E-1,-1.165564656E0,-2.306495905E0
3.016245063E1,1.085006356E0,-1.345189571E0,-2.914144754E0
3.018234355E1,1.241196156E0,-1.476346374E0,-3.501487494E0
3.020222829E1,1.466093540E0,-1.560033798E0,-3.950283527E0
3.022211922E1,1.776875257E0,-1.452844739E0,-4.423579693E0
3.024203292E1,2.048642874E0,-1.058974743E0,-4.944345474E0
3.026190928E1,2.400968552E0,-3.575854003E-1,-5.289214611E0
3.028183271E1,2.797568321E0,6.183677912E-1,-5.420305252E0
3.030173141E1,3.226590872E0,1.717954516E0,-5.338747978E0
3.032157641E1,3.695093632E0,2.746636868E0,-4.929965019E0
3.034151454E1,4.168389797E0,3.950150251E0,-4.427308083E0
3.036141756E1,4.570848465E0,5.539544582E0,-4.081973076E0
3.038126318E1,4.937554836E0,7.175343037E0,-3.844226360E0
3.040118756E1,4.938620090E0,7.972137451E0,-3.350157976E0
3.042105454E1,4.421050072E0,7.204637051E0,-2.339584589E0
3.044097672E1,3.300158501E0,5.890272617E0,-1.591258407E0
3.046085126E1,1.011971354E0,5.633884430E0,-1.620552301E0
3.048075454E1,-3.262675524E0,5.714375973E0,-1.808166504E0
3.050064850E1,-8.020738602E0,4.958593369E0,-2.614614487E0
3.052054490E1,-1.108707809E1,2.608622551E0,-3.359745026E0
3.054044094E1,-1.315303135E1,-7.264223695E-1,-1.821481943E0
3.056032615E1,-1.364709949E1,-1.495520592E0,8.834776282E-1
3.058021261E1,-1.320576000E1,-9.587097168E-2,3.438172817E0
3.060008652E1,-1.202148724E1,1.343791485E0,5.206126690E0
3.061999938E1,-9.737029076E0,2.432725906E0,5.321771145E0
3.063987672E1,-7.548507690E0,2.474270105E0,4.346949577E0
3.065979735E1,-6.413235188E0,1.504774809E0,3.450955629E0
3.067966021E1,-5.147871971E0,6.290200949E-1,2.385988712E0
3.069954006E1,-3.512139797E0,-1.721017063E-1,9.202947617E-1
3.071946678E1,-2.402966022E0,-1.731602907E0,-1.276282370E-1
3.073936146E1,-1.494189024E0,-3.586439848E0,-5.103132129E-1
3.075924615E1,-6.296193004E-1,-4.725506783E0,-9.159006476E-1
3.077912829E1,-2.522605062E-1,-5.157192707E0,-1.383870840E0
3.079901422E1,-4.623111188E-1,-5.142279148E0,-1.798046708E0
3.081894990E1,-5.726293325E-1,-4.713256836E0,-2.249505758E0
3.083881667E1,-3.738302290E-1,-3.868926287E0,-2.618875504E0
3.085872167E1,-1.616491079E-1,-2.970868349E0,-2.770205021E0
3.087859938E1,-6.730940938E-2,-2.373871803E0,-2.651897669E0
3.089849318E1,-2.261622846E-1,-1.901108027E0,-2.404563904E0
3.091836808E1,-1.153114736E-1,-1.103248477E0,-2.281462908E0
3.093825745E1,1.666423976E-1,-4.041227698E-2,-2.258560419E0
3.095816949E1,2.375469655E-1,8.219604492E-1,-2.145046473E0
3.097804485E1,3.318866491E-1,1.265962839E0,-1.908897638E0
3.099796287E1,5.674363375E-1,1.275550008E0,-1.710098505E0
3.101782844E1,7.705629468E-1,8.379389048E-1,-1.575745940E0
3.103775532E1,8.153027296E-1,1.562563628E-1,-1.415361762E0
3.105760558E1,8.376725912E-1,-4.940018058E-1,-1.135538459E0
3.107750693E1,7.955959439E-1,-9.033176303E-1,-9.222920537E-1
3.109741594E1,7.284196615E-1,-1.141064286E0,-8.557149768E-1
3.111728954E1,6.698318124E-1,-1.270556688E0,-8.423995972E-1
3.113718131E1,6.762232184E-1,-1.372952223E0,-7.437323928E-1
3.115706339E1,6.863429546E-1,-1.433670521E0,-5.790873170E-1
3.117696527E1,5.861444473E-1,-1.237001896E0,-5.342809558E-1
3.119687683E1,4.720313847E-1,-9.268193245E-1,-5.571834445E-1
3.121681553E1,4.091826379E-1,-8.234251142E-1,-4.778235853E-1
3.123665464E1,3.452020884E-1,-7.786187530E-1,-3.732976019E-1
3.125655782E1,2.860150635E-1,-7.151708007E-1,-2.826862037E-1
3.127644459E1,2.545906901E-1,-6.517894268E-1,-1.819551140E-1
3.129633454E1,2.652430236E-1,-5.862110257E-1,-8.814803511E-2
3.131622110E1,2.838846147E-1,-4.583165050E-1,-4.340824485E-2
3.133609412E1,2.806889117E-1,-2.754958868E-1,-2.316881903E-2
3.135601532E1,2.364817262E-1,-1.038602218E-1,1.098521519E-2
3.137588688E1,1.815556586E-1,-8.455286734E-3,3.921389207E-2
3.139577568E1,1.133807376E-1,6.990591530E-3,3.228987753E-2
3.141573438E1,5.206326395E-2,2.197043039E-2,2.463351469E-3
3.143556370E1,1.957365684E-2,7.842778414E-2,-2.529928461E-2
3.145547896E1,-8.188978769E-3,1.562563628E-1,-1.837527007E-2
3.147537370E1,-5.505923182E-2,2.127802968E-1,2.323539555E-2
3.149523266E1,-1.099853069E-1,2.372806519E-1,7.702966034E-2
3.151513975E1,-1.531272531E-1,2.756290436E-1,1.143793985E-1
3.153507021E1,-1.824877262E-1,3.321529627E-1,1.197055578E-1
3.155495016E1,-2.000640780E-1,3.876116574E-1,1.042596847E-1
3.157485136E1,-2.208361179E-1,4.195686579E-1,8.934641629E-2
3.159476047E1,-2.368146181E-1,4.232969582E-1,1.047922969E-1
3.161459600E1,-2.442712486E-1,3.977313936E-1,1.431406885E-1
3.163448339E1,-2.453364879E-1,3.816863000E-1,1.585865617E-1
3.165439620E1,-2.442712486E-1,3.816863000E-1,1.330209672E-1
3.167429657E1,-2.309558392E-1,3.539902568E-1,8.668334037E-2
3.169415683E1,-2.117816359E-1,2.970002890E-1,3.655080870E-2
3.171407167E1,-1.931400597E-1,2.223673910E-1,5.659050308E-3
3.173395876E1,-1.835529655E-1,1.306907833E-1,-4.993279930E-3
3.175385428E1,-1.830203533E-1,-1.484668534E-2,2.463351469E-3
3.177377162E1,-1.621817350E-1,-1.187734827E-1,-2.862813650E-3
3.179364032E1,-1.344856620E-1,-1.336867511E-1,-2.103835158E-2
3.181353303E1,-1.062569916E-1,-7.236927003E-2,-2.636451647E-2
3.183344178E1,-9.880036116E-2,1.178414002E-2,-2.157096937E-2
3.185329657E1,-1.019960642E-1,5.712312087E-2,-1.890788600E-2
3.187318891E1,-8.601756394E-2,5.126433820E-2,-2.210358530E-2
3.189311105E1,-7.370080799E-2,2.250304818E-2,-3.222329915E-2
3.191298245E1,-5.079830065E-2,-1.484668534E-2,-4.340824485E-2
3.193291495E1,-2.842840552E-2,-6.278216839E-2,-6.418029219E-2
3.195280053E1,-4.460663069E-3,-1.166430190E-1,-8.601756394E-2
3.197268980E1,2.010627277E-2,-1.496652365E-1,-1.143128201E-1
3.199255245E1,5.419373140E-2,-1.667089611E-1,-1.542590559E-1
3.201246011E1,8.881380409E-2,-1.923411340E-1,-1.969349533E-1
3.203235167E1,1.272287667E-1,-2.487984896E-1,-2.336854935E-1
3.205223672E1,1.602509916E-1,-3.213009238E-1,-2.709686458E-1
3.207210475E1,1.948710680E-1,-3.922054768E-1,-3.152424097E-1
3.209201047E1,2.503297627E-1,-5.078498721E-1,-3.764933050E-1
3.211188475E1,3.169733882E-1,-6.848116517E-1,-4.938020706E-1
3.213177683E1,3.889431953E-1,-8.947957158E-1,-6.553180218E-1
3.215170422E1,4.475310147E-1,-1.061637878E0,-8.477257490E-1
3.217156193E1,5.274900794E-1,-1.126683712E0,-1.060905457E0
3.219148053E1,6.484606266E-1,-1.167695165E0,-1.406307340E0
3.221139662E1,8.046503663E-1,-1.243393302E0,-1.808699131E0
3.223127365E1,1.047723293E0,-1.281808257E0,-2.229799032E0
3.225116553E1,1.324350953E0,-1.223686457E0,-2.587384462E0
3.227103235E1,1.748047352E0,-1.065898776E0,-2.707888842E0
3.229093896E1,2.251236916E0,-6.928009391E-1,-2.707888842E0
3.231081980E1,2.761283636E0,-1.431406848E-2,-2.813946247E0
3.233070959E1,3.324126244E0,8.283518553E-1,-2.990907907E0
3.235061553E1,3.852881193E0,1.603908062E0,-3.172130823E0
3.237049381E1,4.357069492E0,2.291981936E0,-3.353353500E0
3.239042178E1,4.809593678E0,2.774865389E0,-3.458878279E0
3.241032178E1,5.086221218E0,2.918272495E0,-3.479117632E0
3.243018318E1,5.220573902E0,3.098429918E0,-3.530315399E0
3.245006959E1,5.297869682E0,3.798221588E0,-3.779180527E0
3.246998574E1,5.285552979E0,4.837622643E0,-4.244487762E0
3.248986553E1,4.892748356E0,5.979286194E0,-4.786558151E0
3.250975287E1,3.854479074E0,6.498454094E0,-4.544084549E0
3.252966902E1,1.852506757E0,5.809248447E0,-2.925862312E0
3.254955620E1,-1.233539820E0,5.583285809E0,-2.068283081E0
3.256942225E1,-5.392009735E0,5.679755688E0,-2.949297428E0
3.258933198E1,-9.402278900E0,2.778061152E0,-3.287242651E0
3.260922021E1,-1.178693676E1,-1.348917842E0,-2.359291315E0
3.262910928E1,-1.319137955E1,-3.204820156E0,-5.039218068E-1
3.264899126E1,-1.368604755E1,-2.318479776E0,2.017151833E0
3.266892672E1,-1.328199100E1,2.388785034E-1,3.737702847E0
3.268880344E1,-1.232101822E1,2.683721542E0,3.430183411E0
3.270871266E1,-1.153214645E1,2.820737123E0,2.083795547E0
3.272857985E1,-1.015912724E1,8.726255894E-1,1.289131641E0
3.274846282E1,-7.862484932E0,-7.695642710E-1,6.015237570E-1
3.276833928E1,-5.967635155E0,-1.939522982E0,-1.159106717E-1
3.278825042E1,-4.424578667E0,-3.303953409E0,-2.533923090E-1
3.280814865E1,-2.954090834E0,-4.389159679E0,-2.517944574E-1
3.282804865E1,-1.670618296E0,-4.833694458E0,-4.143756330E-1
3.284791475E1,-7.597108483E-1,-4.639156342E0,-6.254249215E-1
3.286782844E1,-2.011293173E-1,-3.921721935E0,-8.429322243E-1
3.288773063E1,3.111146092E-1,-3.068936348E0,-1.122755647E0
3.290762001E1,1.022623658E0,-2.404830217E0,-1.388664365E0
3.292748568E1,1.599380851E0,-2.153235435E0,-1.606171727E0
3.294738547E1,1.909563303E0,-2.174540043E0,-1.795383692E0
3.296728855E1,2.073742390E0,-2.022145271E0,-2.017085314E0
3.298717240E1,2.211224079E0,-1.539195180E0,-2.285723686E0
3.300705376E1,2.047577620E0,-1.246588945E0,-2.530394554E0
3.302697766E1,1.725144863E0,-1.161836386E0,-2.756356955E0
3.304685855E1,1.839724064E0,-1.049920321E0,-2.926927567E0
3.306678860E1,1.711829424E0,-7.338789701E-1,-3.167869806E0
3.308664719E1,1.335535884E0,-4.577838778E-1,-3.297362328E0
3.310651610E1,9.688294530E-1,-5.862110257E-1,-3.021267176E0
3.312644157E1,7.236261368E-1,-1.021159053E0,-2.446174383E0
3.314633011E1,4.406070113E-1,-1.373484850E0,-1.881201506E0
3.316620568E1,1.480008066E-1,-1.336135149E0,-1.472351789E0
3.318609021E1,2.756290510E-2,-1.037670135E0,-1.178147674E0
3.320597516E1,-9.786828421E-3,-8.148366809E-1,-8.594433069E-1
3.322586329E1,-2.862813650E-3,-8.239577413E-1,-5.449332595E-1
3.324581620E1,5.525896326E-2,-9.641024470E-1,-3.418732285E-1
3.326571162E1,1.357506365E-1,-1.019561172E0,-2.842840552E-1
3.328556282E1,2.732322812E-1,-8.170337081E-1,-3.840165138E-1
3.330547032E1,4.310199022E-1,-5.686346889E-1,-4.452674091E-1
3.332532563E1,4.918047786E-1,-4.593817294E-1,-4.234301150E-1
3.334521860E1,5.109789371E-1,-3.175725937E-1,-4.991282523E-1
3.336511521E1,4.774241149E-1,-1.997977644E-1,-5.358787775E-1
3.338500058E1,4.161066413E-1,-1.576544940E-1,-4.191691875E-1
3.340493146E1,3.409411311E-1,-5.958647281E-2,-2.870137095E-1
3.342484224E1,2.988644540E-1,1.093861163E-1,-2.182396203E-1
3.344474605E1,2.935382724E-1,2.505960763E-1,-1.787594110E-1
3.346457756E1,2.940708995E-1,2.975328863E-1,-1.286934614E-1
3.348446292E1,2.833519876E-1,2.181064636E-1,-5.778888986E-2
3.350438428E1,2.492645234E-1,9.387365729E-2,-2.330197254E-3
3.352424902E1,2.039921284E-1,6.990591437E-2,1.258306485E-2
3.354418813E1,1.554574370E-1,1.514628232E-1,1.684399694E-2
3.356403495E1,1.042596847E-1,2.889444530E-1,3.175725788E-2
3.358395855E1,5.472634733E-2,4.009270668E-1,5.093145370E-2
3.360383761E1,6.191667169E-3,4.163729548E-1,7.756228000E-2
3.362375964E1,-4.653736949E-2,3.662404418E-1,1.085206121E-1
3.364364527E1,-7.370080799E-2,2.964676619E-1,1.351514459E-1
3.366349907E1,-8.708280325E-2,2.543243766E-1,1.346188188E-1
3.368343157E1,-8.601756394E-2,2.474003732E-1,1.154446304E-1
3.370331240E1,-9.134373069E-2,2.378132790E-1,1.186403260E-1
3.372319089E1,-9.613727778E-2,2.308892608E-1,1.442059278E-1
3.374307256E1,-9.986559302E-2,2.447372824E-1,1.495320797E-1
3.376298271E1,-9.507204592E-2,2.649767101E-1,1.260969639E-1
3.378288787E1,-9.507204592E-2,2.846835256E-1,8.987903595E-2
3.380280704E1,-9.081111848E-2,2.959350348E-1,6.371425092E-2
3.382265047E1,-8.441971987E-2,2.809551954E-1,5.519238487E-2
3.384252980E1,-6.837464124E-2,2.468677461E-1,5.146406963E-2
3.386245636E1,-5.505923182E-2,1.924742907E-1,5.679023638E-2
3.388234678E1,-4.547213390E-2,1.157775149E-1,4.507267103E-2
3.390223813E1,-2.842840552E-2,1.664426643E-3,-3.928046674E-3
3.392210100E1,-1.191729400E-2,-1.571218669E-1,-7.430000603E-2
3.394201271E1,-6.058512721E-3,-3.468665183E-1,-1.404110342E-1
3.396188422E1,-3.928046674E-3,-5.633085370E-1,-2.145113051E-1
3.398178865E1,-6.058512721E-3,-6.714962721E-1,-3.125793040E-1
3.400169037E1,-1.404776052E-2,-7.573140860E-1,-4.181039631E-1
3.402156417E1,5.259587988E-2,-9.001219273E-1,-5.252264738E-1
3.404144797E1,1.277613789E-1,-1.133074999E0,-6.424686909E-1
3.406133834E1,2.173075378E-1,-1.427811742E0,-7.069818377E-1
3.408126146E1,2.993970513E-1,-1.599979997E0,-8.647694588E-1
3.410111985E1,3.643762767E-1,-1.641524076E0,-1.109373569E0
3.412103698E1,3.713002801E-1,-1.590925574E0,-1.336467981E0
3.414091042E1,3.718329072E-1,-1.534401536E0,-1.534734488E0
3.416082152E1,3.835504651E-1,-1.539727807E0,-1.776742101E0
3.418071553E1,4.224980474E-1,-1.585066795E0,-2.054435015E0
3.420058318E1,4.944678545E-1,-1.567490339E0,-2.320943117E0
3.422049563E1,6.042534113E-1,-1.357972383E0,-2.644973516E0
3.424037813E1,8.153027296E-1,-9.752874374E-1,-3.002625704E0
3.426027188E1,1.081810713E0,-4.902735054E-1,-3.369332075E0
3.428017271E1,1.372819066E0,-1.910761744E-2,-3.690166950E0
3.430007433E1,1.689459562E0,3.897421360E-1,-3.949218273E0
3.431993620E1,2.025207758E0,7.862751484E-1,-4.174714565E0
3.433984657E1,2.410555840E0,1.260104060E0,-4.446482182E0
3.435974542E1,2.832720995E0,2.036126375E0,-4.780166626E0
3.437962162E1,3.246297598E0,3.475256205E0,-5.210320950E0
3.439954021E1,3.525055885E0,5.418041229E0,-5.700128555E0
3.441941407E1,3.165339947E0,7.225409031E0,-6.051921844E0
3.443930771E1,2.733587742E0,8.522729874E0,-5.878155708E0
3.445920865E1,2.066818476E0,8.788172722E0,-4.908061028E0
3.447908724E1,-7.453302145E-1,7.429600716E0,-3.879911661E0
3.449900771E1,-3.861203432E0,4.859459877E0,-3.384245396E0
3.451888688E1,-6.011909008E0,2.046778679E0,-2.010694027E0
3.453878709E1,-8.561743736E0,2.431128025E0,-4.460663069E-3
3.455867365E1,-1.117555904E1,5.762910843E0,1.621151567E0
3.457857053E1,-1.192608261E1,6.519226074E0,2.971800327E0
3.459847074E1,-1.095811844E1,4.300878525E0,3.933306456E0
3.461835199E1,-1.075399303E1,2.750897646E0,4.069789410E0
3.463824251E1,-1.068415451E1,2.880922794E0,3.317668200E0
3.465811797E1,-9.748745918E0,3.195965290E0,2.025141239E0
3.467803146E1,-8.518069267E0,2.658688545E0,6.031216383E-1
3.469790417E1,-7.111495495E0,1.634267211E0,-6.360772848E-1
3.471779745E1,-5.612113476E0,6.567161679E-1,-1.691456914E0
3.473769792E1,-4.300412178E0,-3.383446336E-1,-2.421674013E0
3.475757433E1,-3.159281492E0,-1.572283983E0,-2.647636652E0
3.477747980E1,-1.936061025E0,-2.831189632E0,-2.496240377E0
3.479736318E1,-1.075752258E0,-3.807675362E0,-2.390183210E0
3.481727771E1,-5.928687453E-1,-4.418453217E0,-2.414750099E0
3.483716313E1,1.336201727E-1,-4.704202175E0,-2.443511486E0
3.485705594E1,1.019428015E0,-4.968513012E0,-2.441913605E0
3.487694303E1,1.471419692E0,-5.368308544E0,-2.420076370E0
3.489686558E1,1.470354438E0,-5.704056740E0,-2.409889936E0
3.491678667E1,1.458636880E0,-5.620901585E0,-2.540514231E0
3.493660224E1,1.615359306E0,-5.334686756E0,-2.683854580E0
3.495651834E1,1.557237506E0,-5.133757591E0,-2.642843246E0
3.497642870E1,1.247054935E0,-4.730300426E0,-2.462685585E0
3.499628516E1,1.039201379E0,-3.802881956E0,-2.337986708E0
3.501619803E1,9.805470109E-1,-2.544442177E0,-2.322008371E0
3.503607474E1,7.507895231E-1,-1.491259694E0,-2.190318823E0
3.505596964E1,5.035223365E-1,-8.649691939E-1,-1.900375724E0
3.507587626E1,3.643762767E-1,-6.234942079E-1,-1.570419788E0
3.509574360E1,2.780258060E-1,-5.957981348E-1,-1.279411435E0
3.511565511E1,2.274272442E-1,-6.053852439E-1,-1.080079675E0
3.513552626E1,2.002638131E-1,-6.336805224E-1,-9.612396359E-1
3.515541865E1,1.980667710E-1,-8.234251142E-1,-8.370068669E-1
3.517534454E1,1.906101406E-1,-1.132542491E0,-7.021883130E-1
3.519521834E1,2.513949871E-1,-1.346254826E0,-6.398055553E-1
3.521512860E1,3.196364939E-1,-1.355309248E0,-5.892069936E-1
3.523500532E1,3.116472363E-1,-1.176749587E0,-5.151067376E-1
3.525492126E1,2.748301327E-1,-8.702954054E-1,-4.431369305E-1
3.527482047E1,2.157096863E-1,-5.264914036E-1,-3.392101526E-1
3.529472527E1,1.682402343E-1,-2.168415040E-1,-2.342181057E-1
3.531458568E1,1.384137124E-1,5.286218971E-2,-1.862160414E-1
3.533447787E1,1.543922126E-1,2.580527067E-1,-1.819551140E-1
3.535436115E1,1.751642525E-1,3.694361150E-1,-2.145113051E-1
3.537425693E1,1.943384558E-1,3.657078147E-1,-2.470009029E-1
3.539414063E1,2.018616647E-1,3.113809228E-1,-2.411421239E-1
3.541401787E1,1.645119190E-1,3.539902568E-1,-2.161091566E-1
3.543391417E1,1.069893390E-1,4.989950955E-1,-1.948044896E-1
3.545380922E1,5.632419512E-2,6.412702799E-1,-2.091851383E-1
3.547372136E1,2.489982173E-2,6.855440140E-1,-2.422073632E-1
3.549361521E1,1.531272475E-2,5.997262001E-1,-2.326202542E-1
3.551350324E1,-3.928046674E-3,4.963320196E-1,-1.579873711E-1
3.553340766E1,-3.641765565E-2,4.744281471E-1,-5.193011090E-2
3.555327261E1,-1.105179265E-1,4.776238501E-1,3.548557684E-2
3.557317511E1,-1.792920381E-1,4.675041437E-1,1.149120107E-1
3.559305448E1,-2.128468752E-1,4.259600639E-1,1.788925678E-1
3.561296907E1,-2.458691001E-1,3.689035177E-1,2.145778835E-1
3.563287355E1,-2.667077184E-1,2.943372130E-1,2.316216081E-1
3.565277756E1,-2.634454370E-1,2.085193694E-1,2.428065538E-1
3.567261475E1,-2.490648031E-1,1.338864714E-1,2.609155178E-1
3.569251152E1,-2.245644331E-1,1.045259908E-1,2.555893362E-1
3.571243032E1,-2.165751904E-1,1.344190985E-1,2.204366624E-1
3.573232886E1,-2.165751904E-1,1.993983090E-1,1.783599555E-1
3.575220553E1,-2.117816359E-1,2.708354890E-1,1.378145218E-1
3.577209100E1,-2.139120996E-1,2.991307378E-1,1.223686412E-1
3.579199074E1,-2.091185600E-1,2.644441128E-1,1.319557428E-1
3.581187725E1,-1.963357627E-1,1.967352182E-1,1.362166703E-1
3.583175282E1,-1.920748353E-1,1.157775149E-1,1.202381775E-1
3.585173964E1,-1.995314658E-1,-8.255556226E-2,9.893351793E-2
3.587157563E1,-2.075207084E-1,-4.913387299E-1,6.957302988E-2
3.589144844E1,-2.091185600E-1,-9.923311472E-1,2.323539555E-2
3.591135105E1,-2.059228569E-1,-1.353711486E0,4.593817517E-3
3.593124235E1,-2.165751904E-1,-1.451779485E0,2.589847706E-2
3.595113782E1,-2.293579876E-1,-1.377745748E0,2.802894451E-2
3.597102928E1,-2.432060093E-1,-1.212501526E0,-7.190322969E-3
3.599090839E1,-2.506626546E-1,-1.005713105E0,-6.098458916E-2
3.601081834E1,-2.623802125E-1,-7.828797102E-1,-1.121823564E-1
3.603071198E1,-2.869471312E-1,-6.240268350E-1,-1.974675655E-1
3.605057631E1,-3.215672076E-1,-5.910046101E-1,-3.365470469E-1
3.607049063E1,-3.669061959E-1,-6.959966421E-1,-5.145741105E-1
3.609040329E1,-3.972653449E-1,-8.553821445E-1,-7.357431054E-1
3.611024084E1,-3.428718746E-1,-1.100052834E0,-9.926640391E-1
3.613014495E1,-2.618475854E-1,-1.468357205E0,-1.275150537E0
3.615002037E1,-2.352167666E-1,-1.856368303E0,-1.608302116E0
3.616992704E1,-2.848166823E-1,-2.104168177E0,-1.989389300E0
3.618980954E1,-3.626452684E-1,-2.179333687E0,-2.445109367E0
3.620972917E1,-4.921376705E-1,-2.305164337E0,-2.945569038E0
3.622960865E1,-6.125755906E-1,-2.615346909E0,-3.393299818E0
3.624951688E1,-7.239589691E-1,-2.918072701E0,-3.737103701E0
3.626939282E1,-8.402025700E-1,-2.907953024E0,-4.029177189E0
3.628929948E1,-9.606404305E-1,-2.410156250E0,-4.360731125E0
3.630918876E1,-9.915322065E-1,-1.563229442E0,-4.699142456E0
3.632908209E1,-9.110405445E-1,-6.005917192E-1,-4.966182709E0
3.634898136E1,-7.543846965E-1,3.103156984E-1,-5.144742489E0
3.636895120E1,-5.529224873E-1,1.193460464E0,-5.223104000E0
3.638877313E1,-2.928059399E-1,2.225338459E0,-5.152731895E0
3.640866490E1,-2.363485843E-2,3.576519966E0,-4.839886189E0
3.642856105E1,1.261635423E-1,5.416976452E0,-4.309533119E0
3.644843959E1,4.384765327E-1,8.052629471E0,-3.888966084E0
3.646831490E1,8.787506819E-1,1.121444035E1,-3.625720263E0
3.648822969E1,1.242794037E0,1.326168537E1,-2.937047243E0
3.650813480E1,1.194259405E0,1.405688190E1,-1.437731743E0
3.652801532E1,4.283568263E-1,1.409529686E1,1.863491982E-1
3.654789355E1,-2.917273760E0,1.171010685E1,1.462831259E0
3.656777850E1,-7.246314049E0,7.862884521E0,7.949967384E-1
3.658769511E1,-9.277048111E0,4.396815777E0,1.474016160E-1
3.660758521E1,-1.050506210E1,1.360302567E0,1.503909349E0
3.662745287E1,-1.061697769E1,3.881442845E-1,3.728648424E0
3.664735506E1,-9.814324379E0,1.740324497E0,5.112852097E0
3.666723719E1,-8.953483582E0,3.619661808E0,5.146407127E0
3.668712574E1,-8.392771721E0,4.176113129E0,4.098550797E0
3.670702318E1,-8.156156540E0,3.039775610E0,2.842774153E0
3.672693626E1,-7.445645809E0,1.579873681E0,1.889257312E0
3.674684964E1,-6.365233421E0,5.778889060E-1,1.105778456E0
3.676675777E1,-5.510849953E0,-1.059906855E-1,3.227656186E-1
3.678661834E1,-4.830765247E0,-7.818144560E-1,-3.909405172E-1
3.680647949E1,-3.831376791E0,-1.734798551E0,-7.805495262E-1
3.682640907E1,-2.791509628E0,-2.797634840E0,-9.894683361E-1
3.684628402E1,-2.069814444E0,-3.454817057E0,-1.288998485E0
3.686618449E1,-1.513895869E0,-3.362607718E0,-1.693587303E0
3.688604495E1,-1.147189379E0,-2.764080048E0,-2.164220572E0
3.690595198E1,-8.268871307E-1,-2.251303434E0,-2.595373631E0
3.692584308E1,-3.775585294E-1,-2.027471304E0,-2.890177011E0
3.694580766E1,-1.078548431E-1,-1.848911643E0,-3.057485104E0
3.696564303E1,-1.621817350E-1,-1.388930678E0,-3.276590109E0
3.698551204E1,-3.215672076E-2,-5.420038700E-1,-3.646492481E0
3.700542574E1,1.570552886E-1,-1.486000121E-1,-3.817595482E0
3.702530271E1,3.129122034E-2,-7.716947198E-1,-3.555881023E0
3.704521537E1,-4.649742246E-1,-1.793985605E0,-3.177456856E0
3.706509537E1,-3.823520839E-1,-2.119148016E0,-2.930123091E0
3.708500376E1,7.390054315E-2,-1.588262439E0,-2.726530552E0
3.710492105E1,5.861444473E-1,-1.124553204E0,-2.188720942E0
3.712477058E1,4.166392684E-1,-9.672981501E-1,-1.572017670E0
3.714466016E1,5.498600006E-1,-7.280201912E-1,-1.214964867E0
3.716457032E1,9.485899806E-1,-3.085181117E-1,-1.101384401E0
3.718445495E1,1.227348208E0,1.935395300E-1,-1.019294858E0
3.720433297E1,1.381873488E0,5.597133636E-1,-7.778863907E-1
3.722423094E1,1.393591046E0,8.310149312E-1,-4.922042489E-1
3.724411615E1,1.513562918E0,9.333438873E-1,-2.661750913E-1
3.726403115E1,1.621750712E0,7.724270821E-1,-1.052583382E-1
3.728390870E1,1.597250342E0,3.529250026E-1,4.667052254E-2
3.730379396E1,1.465560913E0,-2.136458009E-1,1.788925678E-1
3.732372620E1,1.355242729E0,-8.020538688E-1,2.651764452E-1
3.734360646E1,1.224152446E0,-1.249784589E0,2.764279842E-1
3.736348027E1,1.103115320E0,-1.570153475E0,1.911427528E-1
3.738337928E1,9.064467549E-1,-1.705504656E0,5.039883777E-2
3.740327657E1,6.922017336E-1,-1.666091084E0,-7.749570161E-2
3.742313829E1,4.432700872E-1,-1.445920706E0,-1.675744653E-1
3.744307079E1,1.804904193E-1,-1.013702393E0,-2.629793882E-1
3.746297068E1,-4.760260135E-2,-5.366111398E-1,-3.418732285E-1
3.748286761E1,-2.314884514E-1,-1.854171306E-1,-3.690366745E-1
3.750278527E1,-3.311543167E-1,1.664426643E-3,-3.397427499E-1
3.752263860E1,-3.391435742E-1,3.049229458E-2,-2.987312973E-1
3.754253136E1,-3.125127256E-1,-2.177070081E-2,-2.544575334E-1
3.756240850E1,-2.667077184E-1,-1.964023337E-2,-1.750310957E-1
3.758227402E1,-2.229665816E-1,1.983996481E-2,-6.684337556E-2
3.760219235E1,-1.734332591E-1,-5.259587895E-3,6.477948278E-2
3.762209053E1,-1.307573467E-1,-5.852124095E-2,1.463363916E-1
3.764196318E1,-1.025286764E-1,-8.202294260E-2,1.580539495E-1
3.766185730E1,-8.655018359E-2,-9.906667471E-2,1.356840581E-1
3.768178646E1,-9.347419441E-2,-1.491326243E-1,1.026618332E-1
3.770163131E1,-1.025286764E-1,-2.045913190E-1,7.383396477E-2
3.772152474E1,-1.185071766E-1,-1.667089611E-1,3.228987753E-2
3.774144943E1,-1.328878254E-1,-2.549901605E-2,-1.677742042E-2
3.776131850E1,-1.504641622E-1,9.973244369E-2,-2.796236612E-2
3.778121532E1,-1.755637228E-1,1.557237506E-1,-3.541899845E-2
3.780110224E1,-1.952705234E-1,1.477345079E-1,-6.684337556E-2
3.782098620E1,-2.160425782E-1,1.050586104E-1,-7.643046975E-2
3.784088829E1,-2.282927483E-1,6.564498693E-2,-6.950645149E-2
3.786081131E1,-2.277601361E-1,-1.750976779E-2,-7.589785010E-2
3.788070917E1,-2.298905998E-1,-1.501978636E-1,-9.294158220E-2
3.790057990E1,-2.607823610E-1,-2.637783289E-1,-1.057909578E-1
3.792047891E1,-2.794905007E-1,-2.957353294E-1,-1.004647911E-1
3.794034881E1,-2.762948275E-1,-2.840177417E-1,-8.761541545E-2
3.796025011E1,-2.543909550E-1,-2.530594170E-1,-5.778888986E-2
3.798012777E1,-2.101837844E-1,-1.934063733E-1,-5.139749497E-2
3.800005131E1,-1.573881805E-1,-1.283605844E-1,-7.430000603E-2
3.801994209E1,-1.195724085E-1,-7.396712154E-2,-1.297587007E-1
3.803982600E1,-8.974587917E-2,-3.828181326E-2,-2.123808414E-1
3.805971912E1,-6.198324636E-2,-9.853405505E-2,-3.179054856E-1
3.807957975E1,-4.920044914E-2,-2.637783289E-1,-4.575175941E-1
3.809951152E1,-4.653736949E-2,-4.812190235E-1,-6.046528816E-1
3.811936943E1,-4.493951797E-2,-6.704310179E-1,-7.773538232E-1
3.813926277E1,-1.884130947E-2,-7.940646410E-1,-1.000120640E0
3.815914589E1,5.738943070E-2,-8.041843772E-1,-1.229345441E0
3.817907678E1,3.169733882E-1,-6.991923451E-1,-1.374283791E0
3.819896839E1,5.770899653E-1,-9.119060636E-1,-1.542191148E0
3.821884178E1,6.282211542E-1,-1.317493558E0,-1.836395144E0
3.823876063E1,6.351451874E-1,-1.643121958E0,-2.156764030E0
3.825862495E1,5.744268894E-1,-1.881401300E0,-2.494109869E0
3.827850370E1,4.854133725E-1,-1.917619228E0,-2.886981249E0
3.829841589E1,4.086500108E-1,-1.727874517E0,-3.259013891E0
3.831829766E1,3.969324529E-1,-1.347320080E0,-3.610207796E0
3.833817954E1,4.790219665E-1,-8.772193789E-1,-3.948685646E0
3.835811021E1,6.692992449E-1,-4.764254689E-1,-4.216791630E0
3.837800428E1,9.037836194E-1,-2.248307467E-1,-4.381503105E0
3.839789318E1,1.134606361E0,7.310161740E-2,-4.509397507E0
3.841776756E1,1.375482202E0,6.940658689E-1,-4.664522171E0
3.843770162E1,1.615891933E0,1.779804707E0,-4.856929779E0
3.845755219E1,1.917019963E0,3.305750847E0,-5.010989189E0
3.847746282E1,2.342380762E0,5.126500607E0,-4.913986683E0
3.849735209E1,2.752229214E0,7.023946762E0,-4.468386173E0
3.851723782E1,3.003823996E0,9.027517319E0,-3.771723747E0
3.853711766E1,2.994236946E0,1.042290592E1,-3.001560450E0
3.855702730E1,2.875330210E0,9.743353844E0,-2.256429911E0
3.857691584E1,2.238986731E0,7.577734947E0,-1.687728524E0
3.859683922E1,-6.765561104E-1,6.618892193E0,-1.605639100E0
3.861674308E1,-5.005596638E0,5.773562908E0,-9.383371472E-1
3.863657422E1,-8.764803886E0,3.592498302E0,5.306192115E-2
3.865646808E1,-1.119852829E1,1.657169700E0,1.190997124E0
3.867640178E1,-1.207048798E1,1.283539176E0,3.518131733E0
3.869628594E1,-1.180025196E1,2.518543720E0,5.725227833E0
3.871617672E1,-1.098634720E1,3.938965321E0,6.321691990E0
3.873603521E1,-9.924642563E0,3.983172655E0,5.486482620E0
3.875595917E1,-9.515792847E0,2.507292271E0,4.382635117E0
3.877585063E1,-8.635844231E0,1.160970807E0,3.334245920E0
3.879578266E1,-7.208498478E0,4.840818346E-1,2.229332924E0
3.881561829E1,-6.053985596E0,9.919982404E-2,1.160105348E0
3.883552813E1,-5.006661892E0,-4.156406224E-1,2.838846147E-1
3.885542438E1,-3.851083755E0,-1.242328048E0,-3.477320075E-1
3.887528183E1,-2.733920574E0,-2.158561468E0,-8.082455397E-1
3.889519068E1,-1.912559271E0,-2.963411808E0,-1.233606458E0
3.891506308E1,-1.362499595E0,-3.575787544E0,-1.669553041E0
3.893498813E1,-7.826133966E-1,-3.789033890E0,-2.105033636E0
3.895485724E1,-8.868064731E-2,-3.516667128E0,-2.566079855E0
3.897479256E1,6.191666722E-1,-3.028923512E0,-2.903492451E0
3.899463657E1,9.395354986E-1,-2.517811298E0,-3.049495935E0
3.901456224E1,9.757534266E-1,-2.099907160E0,-3.047365427E0
3.903444605E1,1.139399886E0,-1.766289473E0,-3.043637037E0
3.905431620E1,1.223087192E0,-1.594121218E0,-3.135846376E0
3.907425714E1,1.267294407E0,-1.554108381E0,-3.141705036E0
3.909411824E1,1.386134505E0,-1.429942131E0,-2.986114502E0
3.911401626E1,1.461300015E0,-1.293525815E0,-2.832587719E0
3.913389167E1,1.340329409E0,-1.435800910E0,-2.664147854E0
3.915378865E1,1.221489429E0,-1.755104542E0,-2.367813349E0
3.917368771E1,1.110571980E0,-1.940055609E0,-2.010694027E0
3.919358574E1,9.661663771E-1,-1.797181249E0,-1.794851065E0
3.921347271E1,7.465286255E-1,-1.541325569E0,-1.562963128E0
3.923337292E1,4.928700030E-1,-1.362765908E0,-1.194126248E0
3.925323454E1,2.726996541E-1,-1.207175374E0,-8.322132826E-1
3.927315469E1,9.520520270E-2,-1.022224188E0,-6.387403607E-1
3.929304985E1,1.311568171E-2,-8.052495718E-1,-5.844134688E-1
3.931293032E1,5.579157919E-2,-6.432675719E-1,-5.758916140E-1
3.933283261E1,1.464029700E-1,-6.347457170E-1,-5.252264738E-1
3.935274756E1,1.693054736E-1,-7.007901669E-1,-4.671046734E-1
3.937259797E1,1.501312852E-1,-6.991923451E-1,-4.735626578E-1
3.939250230E1,9.573781490E-2,-5.814175010E-1,-4.890085459E-1
3.941243672E1,1.364829857E-2,-4.305538833E-1,-4.367455542E-1
3.943226422E1,-2.862813650E-3,-2.754958868E-1,-3.445363045E-1
3.945217506E1,-4.993279930E-3,-4.840152711E-2,-2.805557549E-1
3.947206865E1,3.928046674E-2,1.807567328E-1,-2.448704392E-1
3.949194006E1,7.762885839E-2,3.396095932E-1,-1.760963351E-1
3.951184454E1,1.031944528E-1,3.678382933E-1,-4.820179567E-2
3.953176297E1,1.155112088E-1,3.230984807E-1,7.330134511E-2
3.955165240E1,1.219026074E-1,2.959350348E-1,1.783599555E-1
3.957155553E1,1.192395240E-1,3.790232241E-1,2.476001084E-1
3.959144396E1,8.508548886E-2,6.290200949E-1,2.790910602E-1
3.961134074E1,4.567186534E-2,9.477910995E-1,2.913412452E-1
3.963119547E1,2.330197208E-2,1.200384498E0,3.222329915E-1
3.965108167E1,5.659050308E-3,1.425348401E0,3.552552164E-1
3.967098079E1,-1.617822610E-2,1.618288636E0,3.862135410E-1
3.969089261E1,-5.346138403E-2,1.763759613E0,3.766264617E-1
3.971079344E1,-1.211702600E-1,1.830935836E0,3.515268862E-1
3.973068860E1,-2.128468752E-1,1.749911547E0,3.771590590E-1
3.975056740E1,-2.501300275E-1,1.602310181E0,4.362795055E-1
3.977044167E1,-2.757622004E-1,1.511166215E0,4.970643520E-1
3.979032610E1,-2.565214336E-1,1.560166955E0,4.762923121E-1
3.981023553E1,-2.373472303E-1,1.728606939E0,3.563204408E-1
3.983012761E1,-2.373472303E-1,1.782467723E0,2.673069239E-1
3.985003568E1,-1.776941866E-1,1.694519401E0,2.087190896E-1
3.986992063E1,-1.339530498E-1,1.441859484E0,1.511299312E-1
3.988982355E1,-3.641765565E-2,8.864735961E-1,1.521951705E-1
3.990970574E1,7.123745978E-2,4.477973282E-1,9.520520270E-2
3.992960094E1,5.472634733E-2,2.926727831E-1,2.802894451E-2
3.994947027E1,-4.993279930E-3,2.037258148E-1,5.039883777E-2
3.996937428E1,-9.027849883E-2,1.637129933E-1,7.596442848E-2
3.998928324E1,-1.275616586E-1,1.221689135E-1,8.881380409E-2
4.000914506E1,-1.233007237E-1,3.901416063E-2,6.690994650E-2
4.002904761E1,-9.294158220E-2,-1.033276021E-1,3.228987753E-2
4.004895074E1,-2.203700878E-2,-2.370809317E-1,-1.624480449E-2
4.006885547E1,4.300878197E-2,-2.968005538E-1,-1.089866534E-1
