"Time (s)","Linear Acceleration x (m/s^2)","Linear Acceleration y (m/s^2)","Linear Acceleration z (m/s^2)"
2.109688100E-2,5.016286373E-1,-3.637380600E-1,7.141375542E-1
4.101922500E-2,4.759361744E-1,-2.298865318E-1,9.802222252E-1
6.085995400E-2,4.972250462E-1,-2.055349350E-1,1.150162220E0
8.074500600E-2,6.730992794E-1,-4.508466721E-1,1.351316452E0
1.006500590E-1,8.837196827E-1,-7.873377800E-1,1.376686573E0
1.205474020E-1,1.040598631E0,-9.630975723E-1,1.375078678E0
1.404154230E-1,1.181266308E0,-1.257075787E0,1.304310322E0
1.603273500E-1,1.243043184E0,-1.459614754E0,1.282066345E0
1.802090170E-1,9.871754646E-1,-1.363422871E0,9.538903236E-1
2.001009440E-1,5.113272667E-1,-9.682688713E-1,1.869668961E-1
2.199767770E-1,2.540462017E-1,-6.842999458E-1,-7.426238060E-1
2.398769860E-1,1.201391220E-1,-3.302249908E-1,-1.166912317E0
2.597455270E-1,8.834123611E-2,-3.318500519E-2,-1.330300808E0
2.796859440E-1,-3.660221100E-1,3.850078583E-2,-1.421637058E0
2.995930270E-1,-1.110884786E0,8.909511566E-2,-1.055793285E0
3.194343810E-1,-1.647259474E0,5.349254608E-1,-3.151543140E-1
3.393439650E-1,-2.012266636E0,7.446126938E-1,2.566838264E-1
3.592613090E-1,-1.887704253E0,6.533041000E-1,4.562470913E-1
3.791116730E-1,-1.568081975E0,6.628561020E-1,5.366706848E-1
3.990236520E-1,-1.078225613E0,7.196540833E-1,5.296688080E-1
4.189143290E-1,-3.737604618E-1,5.333538055E-1,4.615812302E-1
4.387799020E-1,2.204468250E-1,3.173131943E-1,4.169564247E-1
4.586754230E-1,1.728515625E-1,3.987684250E-1,6.045675278E-2
4.785646940E-1,-8.529853821E-2,4.336910248E-1,-4.027192593E-1
4.984822460E-1,-1.629135609E-1,2.266683578E-1,-2.954952717E-1
5.183650590E-1,3.277308941E-1,-1.047277451E-1,1.407487392E-1
5.382404230E-1,6.560261250E-1,-3.421239853E-1,3.708148003E-1
5.581488090E-1,1.059192657E0,-3.383188248E-1,5.540730953E-1
5.780192770E-1,1.727772236E0,-8.104138374E-1,8.441658020E-1
5.979134960E-1,2.917715311E0,-1.980980873E0,1.384869099E0
6.177956310E-1,4.304298401E0,-2.905717850E0,1.656073093E0
6.377326630E-1,5.058144569E0,-3.358847141E0,1.238602638E0
6.576270900E-1,5.571064949E0,-3.432892323E0,-8.950662613E-2
6.775160480E-1,5.404359818E0,-3.100793839E0,-1.037439108E0
6.973612040E-1,5.320752144E0,-2.694065094E0,-8.300836086E-1
7.172745900E-1,4.914972305E0,-1.798925400E0,-8.033068180E-1
7.371845380E-1,3.964561224E0,-9.733748436E-1,-1.193475485E0
7.570434440E-1,3.028011799E0,-4.428057671E-1,-3.895542622E-1
7.769353190E-1,2.200496197E0,-1.901454926E-1,-5.612242222E-1
7.968343810E-1,4.311904907E-1,3.300948143E-1,-1.407472849E0
8.167284440E-1,-3.188794613E0,1.325842857E0,-4.365081787E-1
8.365897460E-1,-7.228076935E0,1.903530598E0,1.332015514E0
8.565308920E-1,-1.043263435E1,3.027028084E0,2.589824677E0
8.763811520E-1,-1.318968964E1,5.415106297E0,3.696135521E0
8.962602670E-1,-1.475633240E1,6.409060001E0,5.003753185E0
9.161856840E-1,-1.514767838E1,6.999066830E0,5.939614296E0
9.360736000E-1,-1.381985664E1,8.358825684E0,5.297533512E0
9.559330790E-1,-9.072815895E0,1.058992195E1,3.977886677E0
9.758243290E-1,-2.150790691E0,1.374857712E1,3.270844460E0
9.957668810E-1,3.585624695E0,1.592689800E1,1.189273357E0
1.015637246E0,6.505753517E0,2.020700073E1,-5.641217232E0
1.035538913E0,8.402545929E0,2.155757904E1,-1.876054192E1
1.055395527E0,1.425897980E1,1.685326767E1,-3.628363037E1
1.075345579E0,2.179601479E1,9.463957787E0,-5.141434860E1
1.095177819E0,2.250704956E1,-1.077133060E0,-6.158010483E1
1.115078236E0,1.625894928E1,-1.061599255E1,-6.362902451E1
1.134967663E0,1.111931324E1,-2.322426987E1,-5.954523087E1
1.154869225E0,9.760430336E0,-3.632651138E1,-4.722821045E1
1.174753861E0,7.890573502E0,-4.660106659E1,-3.604277039E1
1.194649850E0,3.664873123E0,-5.354060745E1,-2.900104904E1
1.214546100E0,-2.574125290E0,-5.958410263E1,-2.028717041E1
1.234413236E0,-8.788228035E-1,-5.743084717E1,-1.017888260E1
1.254301048E0,-4.304235458E0,-5.593881226E1,-5.348990440E0
1.274191048E0,-9.904710770E0,-5.145125198E1,1.148012161E0
1.294098079E0,-1.451375008E1,-3.978491211E1,4.204753399E0
1.313963965E0,-1.062479782E1,-3.011146355E1,5.589121342E0
1.333883600E0,-5.096829414E0,-2.302523994E1,5.806873322E0
1.353746934E0,-1.209460735E0,-1.775191498E1,2.430461407E0
1.373673600E0,5.712757111E-1,-1.113356972E1,1.187205315E-1
1.393572194E0,9.513421059E-1,-2.632477283E0,-3.703532219E-1
1.413426673E0,2.490729332E0,6.032061577E0,-1.909205914E0
1.433307194E0,5.900085449E0,8.870670319E0,-5.900277615E0
1.453198861E0,6.231607914E0,8.591817856E0,-6.228505135E0
1.473101152E0,2.916295052E0,1.036803436E1,-1.603708267E0
1.492967194E0,-3.605751991E-1,7.954316139E0,-1.196099281E0
1.512890371E0,-3.203147650E0,4.150440216E0,-2.443735361E0
1.532790892E0,-4.219958782E0,2.909045219E0,-5.253806114E-1
1.552650840E0,-4.872117043E0,3.283274651E0,1.124515057E0
1.572578444E0,-4.789632797E0,2.879994392E0,6.389915943E-1
1.592440319E0,-3.584138870E0,1.612401009E0,-1.135218143E-1
1.612338027E0,-1.106448531E0,1.471265793E0,1.944160461E-2
1.632235684E0,4.629476070E-1,2.463552475E0,-2.516950369E-1
1.652129017E0,-2.095198631E-1,3.404891968E0,1.188544035E-1
1.671983236E0,-1.630285501E0,3.213081360E0,-1.283383369E-2
1.691905788E0,-2.060835361E0,2.633127213E0,-2.421193123E-1
1.711791517E0,-2.114251852E0,1.819908142E0,-9.602051377E-1
1.731703861E0,-2.425912619E0,1.162857056E0,-9.030215740E-1
1.751578548E0,-3.104774952E0,8.268928528E-1,-6.750309467E-1
1.771469642E0,-3.608977318E0,7.044095993E-1,-5.310763121E-1
1.791358913E0,-3.347303867E0,3.303146362E-1,-2.361226082E-2
1.811249381E0,-2.798636198E0,1.221456528E-1,-3.190221786E-1
1.831106829E0,-2.142238855E0,4.710741043E-1,-7.323397398E-1
1.851032559E0,-1.621129513E0,1.061431885E0,-8.903541565E-1
1.870914902E0,-1.549051285E0,1.003987312E0,-8.428612947E-1
1.890793913E0,-1.849098682E0,5.421161652E-1,-7.522011995E-1
1.910706465E0,-2.242137432E0,5.449666977E-1,-2.861150503E-1
1.930575006E0,-2.214145422E0,7.806901932E-1,6.412029266E-2
1.950482663E0,-1.708932400E0,9.829130173E-1,-9.741973877E-2
1.970376413E0,-1.129995346E0,8.064317703E-1,-1.623685360E-1
1.990255579E0,-3.371782303E-1,3.376712799E-1,1.122250557E-1
2.010128340E0,1.851975918E-1,3.089666367E-1,4.621427059E-1
2.030040059E0,3.225195408E-1,4.247627258E-1,3.217356205E-1
2.049932559E0,5.561504364E-1,1.304988861E-1,2.497756481E-1
2.069806361E0,8.896508217E-1,-3.045396805E-1,3.911993504E-1
2.089691465E0,7.904796600E-1,-2.396087646E-1,4.901740551E-1
2.109627454E0,5.075504780E-1,-1.450176239E-1,4.434723854E-1
2.129499225E0,6.239471436E-1,-4.797687531E-1,4.112133980E-1
2.149381465E0,9.963812828E-1,-7.829999924E-1,4.706637859E-1
2.169274798E0,1.176433563E0,-8.407821655E-1,4.216685295E-1
2.189161986E0,1.017157078E0,-5.628366470E-1,5.470156670E-1
2.209055006E0,9.674298763E-1,-5.051298141E-1,6.689810753E-1
2.228919277E0,1.485957384E0,-7.054386139E-1,9.205989838E-1
2.248839538E0,2.189153671E0,-6.441688538E-1,1.203977823E0
2.268711465E0,2.550807238E0,-3.556613922E-1,1.216526508E0
2.288602402E0,2.760050297E0,-7.730512619E-1,1.227428913E0
2.308523913E0,3.542972803E0,-2.250166416E0,1.000786066E0
2.328418756E0,4.426306725E0,-2.974529266E0,1.156384945E-1
2.348283131E0,4.982266426E0,-3.536861897E0,-1.122653008E0
2.368202559E0,4.434615135E0,-4.049012661E0,-1.360620260E0
2.388066256E0,3.029495001E0,-3.491979122E0,-1.476729870E0
2.407944746E0,2.249392509E0,-3.144138336E0,-2.129960299E0
2.427841777E0,1.724581718E0,-2.670393467E0,-2.299428463E0
2.447743704E0,7.481050491E-1,-1.747621059E0,-2.138725281E0
2.467647767E0,4.382786751E-1,-7.140707970E-1,-3.065496922E0
2.487578340E0,2.182097435E-1,-1.681551933E-1,-3.632827759E0
2.507403913E0,-7.463164330E-1,2.164115906E-1,-2.518293619E0
2.527288548E0,-2.565776110E0,6.525340080E-1,-1.122168660E0
2.547195006E0,-3.879266500E0,1.200538635E0,-9.340448976E-1
2.567090892E0,-5.061509132E0,2.098448753E0,-7.704696655E-1
2.586956986E0,-5.888103485E0,2.781540871E0,9.140033722E-1
2.606844121E0,-6.273886681E0,3.876342773E0,4.605037689E0
2.626771309E0,-7.234787464E0,5.861887455E0,7.033254147E0
2.646656829E0,-7.246202469E0,7.263913631E0,7.501903057E0
2.666520684E0,-5.367924690E0,8.405060768E0,7.512291908E0
2.686437559E0,-2.712458134E0,1.034507751E1,7.615698814E0
2.706300840E0,3.863458633E-1,1.169894028E1,6.954173088E0
2.726205840E0,4.668556213E0,1.216636181E1,6.234701157E0
2.746096986E0,9.823879242E0,1.452416801E1,5.251154900E0
2.765989381E0,1.345973587E1,1.885024643E1,2.558578014E0
2.785860111E0,1.405919647E1,2.361976433E1,-2.082708120E0
2.805791361E0,1.326593018E1,2.673241615E1,-7.542463779E0
2.825679121E0,1.106457424E1,2.608576775E1,-1.590810108E1
2.845591673E0,8.463874817E0,1.804538918E1,-3.153693581E1
2.865427663E0,1.130807495E1,5.962147713E0,-4.689085007E1
2.885319694E0,1.669414139E1,-2.207925320E0,-5.117641068E1
2.905214277E0,1.711759567E1,-1.443336678E1,-5.776726913E1
2.925110475E0,1.179840183E1,-2.448201370E1,-5.403140640E1
2.945004277E0,5.537483215E0,-3.479480743E1,-4.202973175E1
2.964903913E0,1.839141846E0,-4.147172546E1,-3.195664978E1
2.984791725E0,3.758716583E-2,-5.114568710E1,-2.486697769E1
3.004678079E0,-4.617530346E0,-5.677584839E1,-1.458845329E1
3.024595423E0,-1.023660088E1,-5.017243576E1,-5.482470989E0
3.044485996E0,-1.359400558E1,-4.242731857E1,-2.197937012E0
3.064330788E0,-1.024522209E1,-3.840242767E1,3.216743469E-2
3.084222454E0,-2.962589979E0,-3.035642624E1,4.823311329E0
3.104134329E0,-6.577968597E-2,-2.268479919E1,6.732012749E0
3.124031725E0,-9.330954552E-1,-1.756579781E1,5.893506527E0
3.143910788E0,-2.022228479E0,-1.324038219E1,5.365468979E0
3.163796621E0,-2.714382887E0,-7.175154686E0,4.583740711E0
3.183694694E0,-1.833856583E0,-4.718866348E-1,2.635198593E0
3.203590579E0,-5.160481930E-1,3.356305599E0,-8.394460678E-1
3.223506309E0,-1.750230789E-1,6.747884274E0,-4.153206348E0
3.243352923E0,1.300332546E-1,8.815259933E0,-4.248608112E0
3.263242246E0,1.496408224E0,7.906793594E0,-1.060804605E0
3.283136569E0,1.522783041E0,6.125758171E0,-1.232932091E0
3.303023548E0,-4.755373001E-1,4.910929680E0,-3.656164169E0
3.322933704E0,-3.221775770E0,4.832027435E0,-3.737627745E0
3.342803131E0,-4.692781925E0,5.153199196E0,-1.985474110E0
3.362703652E0,-4.553452015E0,4.933345795E0,9.793109894E-1
3.382593236E0,-3.785294056E0,3.541055679E0,2.264171839E-1
3.402509225E0,-4.042407036E0,3.281696320E0,-1.969377518E0
3.422384642E0,-4.571306705E0,3.308382034E0,-1.729609013E0
3.442260111E0,-4.591753006E0,2.619668007E0,-8.891403079E-1
3.462176829E0,-3.842558861E0,1.824795723E0,-1.229387522E-1
3.482068704E0,-3.315413237E0,1.497804642E0,-4.597272873E-1
3.501925736E0,-3.309369087E0,9.348659515E-1,-8.273703456E-1
3.521842350E0,-3.573417187E0,-4.540538788E-2,1.079067826E0
3.541736621E0,-3.385992527E0,-3.377027512E-1,2.526281357E0
3.561616725E0,-2.298490524E0,2.860918045E-1,1.590523839E0
3.581523131E0,-1.387109637E0,5.914936066E-1,-1.232662201E-1
3.601416465E0,-1.067817807E0,4.994745255E-1,-7.177184820E-1
3.621295319E0,-9.149106741E-1,5.881481171E-1,-5.474478006E-1
3.641174225E0,-9.309312105E-1,1.003582001E0,-3.569474220E-1
3.661077767E0,-9.041446447E-1,1.168537140E0,-3.323247433E-1
3.680957819E0,-4.259495735E-1,6.874294281E-1,-3.371119499E-2
3.700838756E0,1.432633400E-2,2.335872650E-1,2.199375629E-1
3.720720736E0,1.628599167E-1,1.822471619E-1,3.878840208E-1
3.740609590E0,7.058644295E-2,1.582860947E-1,4.088367224E-1
3.760522402E0,-5.371308327E-2,-8.036804199E-2,3.870782852E-1
3.780426621E0,-1.999258995E-2,-1.600360870E-1,4.119724035E-1
3.800289381E0,8.304119110E-4,6.416225433E-2,1.196247339E-1
3.820209746E0,7.736945152E-2,7.457733154E-2,-1.441575289E-1
3.840096934E0,2.330701351E-1,-1.657037735E-1,-1.333038807E-1
3.859954017E0,3.854117393E-1,-2.167406082E-1,-4.686927795E-2
3.879858548E0,3.173012733E-1,-6.521129608E-2,5.929744244E-2
3.899755006E0,1.212470531E-1,1.064252853E-1,5.165946484E-2
3.919676777E0,-4.075527191E-2,-1.043882370E-1,1.610842943E-1
3.939574173E0,-9.302425385E-2,-3.070507050E-1,3.533314466E-1
3.959421777E0,-1.328506470E-1,8.071708679E-2,2.380837202E-1
3.979305006E0,-1.116409302E-1,3.787746429E-1,-4.162037373E-2
3.999222038E0,-6.069469452E-2,2.468748093E-1,8.484601974E-3
4.019112142E0,-3.348164558E-1,2.965383530E-1,1.731345654E-1
4.038970840E0,-8.481333256E-1,6.211748123E-1,1.610363722E-1
4.058883340E0,-1.290128231E0,7.626018524E-1,3.652892113E-1
4.078744746E0,-1.159358144E0,4.724512100E-1,6.847662926E-1
4.098655215E0,-6.758430004E-1,2.334232330E-1,7.613918781E-1
4.118562923E0,-2.345802784E-1,1.403522491E-1,7.341127396E-1
4.138430527E0,1.374776363E-1,-7.358551025E-3,6.709629297E-1
4.158318340E0,7.681739330E-1,-4.584836960E-1,6.933263540E-1
4.178221100E0,1.780445337E0,-9.085073471E-1,7.368050814E-1
4.198107298E0,2.765073538E0,-1.219552517E0,6.881989241E-1
4.217986986E0,3.464746237E0,-1.317468643E0,7.841415405E-1
4.237886204E0,4.121425629E0,-1.763962269E0,8.215212822E-1
4.257780579E0,4.728253365E0,-2.190274715E0,8.164325953E-1
4.277678913E0,5.203254223E0,-2.369713306E0,3.691318035E-1
4.297563340E0,5.796787262E0,-2.634836197E0,-3.966829777E-1
4.317447142E0,5.893212318E0,-2.529179573E0,-1.086408257E0
4.337369329E0,5.185238361E0,-1.816421986E0,-1.810235500E0
4.357258496E0,4.140293121E0,-1.911521435E0,-2.585205793E0
4.377147142E0,3.675829887E0,-2.360395432E0,-2.641057730E0
4.397041725E0,3.855258942E0,-2.171450615E0,-2.331188679E0
4.416896309E0,4.325456619E0,-1.797820568E0,-2.322701693E0
4.436814017E0,4.552825928E0,-1.145174026E0,-2.448949337E0
4.456667142E0,3.781997681E0,-2.930860519E-1,-2.767868042E0
4.476578600E0,2.035543919E0,4.436721802E-1,-3.649471760E0
4.496468236E0,-6.903266907E-2,6.564488411E-1,-3.848383665E0
4.516380059E0,-3.430074215E0,8.758339882E-1,-2.843187571E0
4.536273079E0,-6.008900642E0,1.128986359E0,-2.631125450E-1
4.556162871E0,-7.899192810E0,3.131502628E0,2.427586555E0
4.576054642E0,-9.326965332E0,5.009306908E0,3.620250463E0
4.595933756E0,-9.938030243E0,6.812195301E0,4.466665745E0
4.615817611E0,-9.681265831E0,1.192211342E1,5.698789120E0
4.635710215E0,-7.067674160E0,1.879606819E1,6.327775002E0
4.655652246E0,-2.071999550E0,2.119709587E1,5.821830750E0
4.675551465E0,2.163611412E0,2.442445374E1,5.233828545E0
4.695374277E0,5.923462868E0,3.094440079E1,1.917018533E0
4.715251777E0,1.039004612E1,3.149203682E1,-4.051845074E0
4.735168496E0,1.603667068E1,2.754684067E1,-7.689233303E0
4.755042611E0,1.948688507E1,2.348581696E1,-1.273009968E1
4.774968913E0,1.497083759E1,1.752142906E1,-2.349412727E1
4.794833444E0,7.974578857E0,8.911780357E0,-2.981828880E1
4.814728392E0,5.748588562E0,-2.316708088E0,-2.903529167E1
4.834618184E0,9.839396477E0,-2.289845085E1,-4.309706879E1
4.854534381E0,1.643960571E1,-4.033469391E1,-4.561153412E1
4.874383079E0,8.692422867E0,-4.304174042E1,-3.170890045E1
4.894287090E0,-1.303540802E1,-3.567017365E1,-2.549182129E1
4.914195163E0,-1.581517029E1,-3.774087906E1,-1.751680756E1
4.934076413E0,-5.944283485E0,-3.833926010E1,-1.054771614E1
4.953958496E0,-1.047940254E0,-4.216028595E1,-7.692459106E0
4.973855111E0,2.511540413E0,-3.797740173E1,-2.784753323E0
4.993734173E0,-8.586597443E-1,-3.365488052E1,1.112275362E0
5.013664590E0,-4.875258446E0,-2.953209686E1,5.621335506E0
5.033583027E0,-7.370979309E0,-2.345039368E1,1.040988922E1
5.053399434E0,-7.398939133E0,-1.793399048E1,1.052397728E1
5.073290892E0,-2.865454197E0,-1.600261688E1,9.948635101E0
5.093215371E0,-3.102282763E0,-1.231167412E1,1.061350441E1
5.113088704E0,-3.720372677E0,-7.214807510E0,8.801074982E0
5.132991204E0,-3.008294106E-1,-4.559861660E0,4.788040638E0
5.152855371E0,2.389242172E0,-2.111232996E0,2.158310890E0
5.172764173E0,2.401159286E0,8.120460510E-1,1.553237200E0
5.192632454E0,2.782591820E0,2.038994312E0,6.252968311E-1
5.212534121E0,1.838616371E0,1.524854660E0,-1.355022192E0
5.232410579E0,-5.142579079E-1,3.173359871E0,-2.851497173E0
5.252327663E0,-2.007096529E0,4.620755196E0,-3.478454828E0
5.272226725E0,-2.096863508E0,4.973197937E0,-1.918816328E0
5.292106465E0,-2.118378639E0,4.810556412E0,-1.949001551E-1
5.311998600E0,-2.737735271E0,3.485261917E0,-1.124557018E0
5.331871100E0,-3.751197815E0,3.149666786E0,-1.713438749E0
5.351771256E0,-3.752748251E0,3.347166061E0,-3.178941011E-1
5.371679902E0,-3.891432285E0,3.183386803E0,1.496252894E0
5.391561204E0,-4.185343742E0,2.295029640E0,1.525452137E0
5.411452559E0,-4.772150993E0,1.568572044E0,1.227788925E0
5.431349225E0,-4.805069923E0,1.021121025E0,1.881204486E0
5.451245788E0,-2.293121815E0,6.108245850E-1,2.282745600E0
5.471120892E0,-8.613712788E-1,9.813051224E-1,9.389207363E-1
5.491016777E0,-1.013540745E0,1.695303917E0,-6.421883106E-1
5.510895215E0,-1.690500617E0,1.419956207E0,-1.055341482E0
5.530769381E0,-2.097335815E0,7.746410370E-1,-3.508698940E-1
5.550689902E0,-2.167691708E0,4.943809509E-1,3.213523626E-1
5.570567871E0,-1.409369826E0,5.398111343E-1,1.046544313E-1
5.590462194E0,-4.528124332E-1,6.647891998E-1,-1.541653872E-1
5.610357559E0,-3.265240192E-1,5.791215897E-1,-2.563619614E-2
5.630246152E0,-6.424951553E-1,3.588056564E-1,2.213094234E-1
5.650142402E0,-6.270012856E-1,2.143249512E-1,3.567752838E-1
5.670036621E0,-2.671525478E-1,4.027843475E-2,2.170795202E-1
5.689903548E0,-1.559214592E-1,2.175874710E-1,5.906629562E-2
5.709809798E0,-3.360052109E-1,6.178445816E-1,-1.920183897E-1
5.729706309E0,-3.886001110E-1,4.891395569E-1,-1.991605759E-1
5.749600892E0,-1.983344555E-1,1.032142639E-1,1.137299538E-1
5.769513704E0,-1.137299538E-1,-6.953144073E-2,3.225135803E-2
5.789350371E0,-1.727645397E-1,8.949184418E-2,-2.671239376E-1
5.809270892E0,-6.155824661E-2,2.574205399E-1,-1.998860836E-1
5.829161100E0,1.025145054E-1,1.641082764E-1,8.324444294E-2
5.849021569E0,1.720049381E-1,-3.195571899E-2,3.352526426E-1
5.868912454E0,1.094510555E-1,6.777858734E-2,2.031999826E-1
5.888823600E0,1.272547245E-1,3.687362671E-1,-1.093434095E-1
5.908727350E0,9.024000168E-2,2.660140991E-1,-9.571075439E-2
5.928598184E0,1.140058041E-1,-1.059989929E-1,2.213780880E-1
5.948532194E0,1.354267597E-1,-1.739463806E-1,2.897619009E-1
5.968386725E0,1.030817032E-1,1.489028931E-1,3.801107407E-3
5.988290579E0,3.537106514E-2,2.343378067E-1,-1.079679728E-1
6.008177767E0,2.319407463E-2,-6.291389465E-3,1.750186682E-1
6.028065371E0,-5.439186096E-2,-1.635341644E-1,2.394402027E-1
6.047937506E0,-1.043827534E-1,-1.047334671E-1,3.401839733E-2
6.067822871E0,6.139206886E-2,-1.339435577E-2,6.574678421E-2
6.087706881E0,3.082661629E-1,3.318786621E-4,1.320922375E-1
6.107614590E0,3.481183052E-1,1.467924118E-1,2.485215664E-2
6.127513392E0,3.330838680E-1,2.487659454E-1,-1.754355431E-2
6.147404850E0,3.551886082E-1,4.526710510E-2,2.920424938E-1
6.167282350E0,5.755918026E-1,-2.601795197E-1,6.396696568E-1
6.187159069E0,1.013523579E0,-5.140323639E-1,7.933399677E-1
6.207066829E0,1.412689924E0,-8.742504120E-1,8.409070969E-1
6.226935944E0,2.187088251E0,-1.694295406E0,7.595087290E-1
6.246856673E0,3.308472872E0,-2.559979916E0,5.668318272E-1
6.266719381E0,4.635050774E0,-2.959838390E0,-3.976309299E-2
6.286624694E0,5.435378075E0,-3.621414661E0,-1.187051535E0
6.306540319E0,5.428289413E0,-4.049774647E0,-1.986301899E0
6.326435215E0,4.834934235E0,-4.110918999E0,-1.758499265E0
6.346330788E0,3.671782970E0,-3.491742134E0,-1.046694756E0
6.366218652E0,2.910994053E0,-2.631886005E0,-4.994034767E-1
6.386093444E0,3.201210499E0,-1.705326557E0,-1.850669384E-1
6.405988600E0,2.927601337E0,-4.502434731E-1,-8.968421221E-1
6.425852246E0,2.279586315E0,8.674192429E-2,-2.260400772E0
6.445750111E0,1.004867554E0,-1.648402214E-1,-1.657927632E0
6.465674277E0,-8.959879875E-1,-6.548433304E-1,1.451400280E0
6.485575892E0,-1.664927483E0,1.503462791E-1,4.503356934E0
6.505433548E0,-2.284888268E0,3.021573067E0,5.761490345E0
6.525332402E0,-4.208353996E0,8.226170540E0,6.639787197E0
6.545208027E0,-5.284901619E0,1.313647842E1,7.937846661E0
6.565086569E0,-3.165177345E0,1.578785229E1,9.121817589E0
6.584998913E0,1.953341484E0,1.679730988E1,9.580530167E0
6.604900788E0,7.586565018E0,1.926804352E1,9.304997444E0
6.624788496E0,1.146274567E1,2.290206146E1,7.783016205E0
6.644645944E0,1.384708214E1,2.417773628E1,5.557767868E0
6.664562559E0,1.376429653E1,2.515231323E1,1.377393842E0
6.684465579E0,1.063519669E1,2.581713104E1,-7.153771400E0
6.704349486E0,8.159026146E0,2.348064041E1,-1.786847115E1
6.724242663E0,1.073967266E1,1.437285900E1,-2.695139694E1
6.744121309E0,2.113540077E1,-3.017098427E0,-4.250677490E1
6.764015631E0,3.199835205E1,-2.491938210E1,-6.279518127E1
6.783893548E0,2.420748901E1,-3.872213745E1,-5.914914703E1
6.803781569E0,5.473928452E0,-4.507726288E1,-4.760099030E1
6.823686881E0,-6.214685440E-1,-4.359280396E1,-3.515291977E1
6.843600319E0,4.646915436E0,-4.438144302E1,-3.400019073E1
6.863505215E0,3.587099075E0,-5.879710770E1,-2.545453644E1
6.883338600E0,3.251666069E0,-5.778752899E1,-9.608224869E0
6.903257038E0,-3.904096603E0,-5.571435928E1,-4.233734608E0
6.923121204E0,-1.460717201E1,-5.497120285E1,5.338406563E-1
6.943007975E0,-1.893803787E1,-3.999272156E1,8.624101639E0
6.962902090E0,-1.201279831E1,-2.910432434E1,1.080843353E1
6.982821152E0,-2.864468575E0,-2.311516571E1,1.053457832E1
7.002680006E0,-1.456421375E0,-1.584833145E1,8.160604477E0
7.022590267E0,-6.579542160E-2,-9.007422447E0,4.567959309E0
7.042489538E0,3.113913059E0,-1.696393847E0,2.061687946E0
7.062353548E0,6.004943848E0,3.893143654E0,6.428480148E-1
7.082245006E0,7.097792625E0,4.465702057E0,-5.618586540E-1
7.102161829E0,6.279378414E0,3.550400257E0,-1.049570322E0
7.122042819E0,4.262926102E0,4.024272442E0,-1.856254816E0
7.141923131E0,1.441287518E0,4.833612442E0,-3.186467171E0
7.161801413E0,-1.307679892E0,4.906793118E0,-3.662452698E0
7.181711152E0,-2.355802774E0,4.167269230E0,-2.275133610E0
7.201609746E0,-2.282279491E0,4.189956665E0,-3.945965767E-1
7.221502559E0,-2.599806309E0,2.943728447E0,-7.138140202E-1
7.241368444E0,-3.295900106E0,2.621273041E0,-2.145475388E0
7.261264434E0,-3.322639704E0,2.320635796E0,-2.620079279E0
7.281177506E0,-2.701748848E0,2.677578926E0,-1.170970678E0
7.301078184E0,-2.552302361E0,2.761194229E0,4.194191694E-1
7.320951413E0,-2.541525841E0,2.223640442E0,2.892799377E-1
7.340835111E0,-3.035738707E0,2.075391769E0,-6.010434628E-1
7.360741152E0,-3.484545231E0,1.611154556E0,-8.247881532E-1
7.380605840E0,-3.769277096E0,9.754800797E-1,5.882126093E-1
7.400534069E0,-3.501946449E0,1.062559128E0,2.257184029E0
7.420390684E0,-3.093831301E0,1.034197807E0,1.548165083E0
7.440280631E0,-2.972797871E0,1.261650085E0,-4.556216002E-1
7.460201204E0,-3.207359076E0,1.130355835E0,-1.258087993E0
7.480079642E0,-2.839195251E0,8.859310150E-1,-9.532092810E-1
7.499969590E0,-2.136687756E0,8.425769806E-1,-4.932055473E-1
7.519855006E0,-1.530851364E0,8.831052780E-1,-3.585450649E-1
7.539772090E0,-1.217241168E0,7.640895844E-1,-2.221753597E-1
7.559651204E0,-1.093750596E0,8.955383301E-1,-6.304359436E-2
7.579580111E0,-1.219161272E0,1.074465752E0,-2.526816130E-1
7.599400475E0,-1.203369021E0,7.732801437E-1,-2.114537954E-1
7.619312767E0,-7.334933281E-1,4.180278778E-1,6.850266457E-2
7.639208236E0,-3.733026981E-1,2.424478531E-1,9.181141853E-3
7.659067663E0,-2.215013504E-1,1.647825241E-1,4.007911682E-2
7.678986100E0,-3.609673977E-1,1.246881485E-1,-1.241917610E-1
7.698867350E0,-4.118130207E-1,3.012943268E-1,-3.350503445E-1
7.718741100E0,-1.885316372E-1,4.093160629E-1,-2.381017208E-1
7.738661100E0,6.632685661E-2,6.547927856E-2,-1.124767065E-1
7.758552663E0,3.297996521E-1,-2.235879898E-1,-1.540243626E-1
7.778442975E0,3.403089046E-1,-9.461021423E-2,-1.651197672E-1
7.798332350E0,2.716724873E-1,1.380891800E-1,-3.078318834E-1
7.818211152E0,6.162617207E-1,1.562995911E-1,-3.566840887E-1
7.838115579E0,8.266649246E-1,-1.637954712E-1,-5.136132240E-2
7.857993184E0,6.810448170E-1,-4.950733185E-1,2.226703167E-1
7.877871777E0,4.799222946E-1,-3.918323517E-1,2.203140259E-1
7.897777923E0,3.220429420E-1,-8.200359344E-2,2.821826935E-2
7.917681725E0,4.874179363E-1,-1.237583160E-1,-6.049752235E-2
7.937561986E0,6.334075928E-1,-3.737325668E-1,9.899520874E-2
7.957429486E0,5.248775482E-1,-4.081974030E-1,1.546804905E-1
7.977349746E0,3.087444305E-1,-2.513694763E-2,3.568363190E-2
7.997239850E0,2.104690075E-1,1.239185333E-1,4.359889030E-2
8.017111777E0,4.962563515E-1,3.783512115E-2,2.108850479E-1
8.036987506E0,7.012526989E-1,-1.430702209E-2,1.622052193E-1
8.056913652E0,5.129375458E-1,1.062479019E-1,2.048311234E-1
8.076786204E0,4.066691399E-1,2.080135345E-1,5.513796806E-1
8.096685475E0,6.080100536E-1,-1.075744629E-2,8.671524525E-1
8.116561673E0,1.068731308E0,-3.169231415E-1,1.142691612E0
8.136438652E0,1.316947222E0,-7.059631348E-1,1.068439245E0
8.156349850E0,1.236323595E0,-1.112307072E0,1.045639038E0
8.176218444E0,1.150136232E0,-1.819657803E0,1.061598301E0
8.196132819E0,1.868894339E0,-2.285408974E0,6.778571606E-1
8.216008861E0,3.171401501E0,-2.902997494E0,-3.513815403E-1
8.235894329E0,4.425768375E0,-3.953647614E0,-1.504310608E0
8.255790423E0,4.227311134E0,-4.937271118E0,-2.023557901E0
8.275700892E0,2.624200344E0,-4.445354939E0,-2.251478910E0
8.295582142E0,1.317926407E0,-3.872343063E0,-2.872707844E0
8.315476621E0,2.763743401E-1,-3.471537113E0,-3.056558132E0
8.335368600E0,-9.489870071E-1,-3.397533894E0,-2.477125883E0
8.355249590E0,-1.859708071E0,-2.882907391E0,-1.225319862E0
8.375179746E0,-1.233772039E0,-2.121922493E0,2.019336075E-1
8.395051204E0,-1.205778122E-1,-1.807524681E0,3.631548285E-1
8.414944538E0,3.470754623E-1,-1.742552757E0,1.072389126E0
8.434837663E0,-3.010206223E-1,-1.639569283E0,3.732921362E0
8.454703965E0,-2.372283936E-1,-9.788022041E-1,5.952697277E0
8.474602611E0,3.584575653E-2,-1.347589493E-1,6.836572647E0
8.494488704E0,-1.594619751E-1,2.473089218E0,7.113600731E0
8.514380996E0,1.654329300E-1,5.489875317E0,7.645496845E0
8.534263756E0,2.780920982E0,7.239599228E0,9.408607483E0
8.554181829E0,7.679206848E0,8.355189323E0,1.175802326E1
8.574069954E0,1.287804604E1,1.193933010E1,1.316874313E1
8.593956621E0,1.758109665E1,1.638312149E1,1.055670929E1
8.613857975E0,2.275270462E1,1.899802589E1,4.203571320E0
8.633746309E0,3.037971497E1,2.001258659E1,-8.430317640E-1
8.653631256E0,3.957046127E1,1.704994965E1,-9.712668419E0
8.673537402E0,4.519905472E1,9.931812286E0,-2.590561295E1
8.693431361E0,4.803234100E1,-3.812839031E0,-4.476623535E1
8.713287715E0,4.315675735E1,-2.164300156E1,-5.298015213E1
8.733177506E0,3.140870667E1,-3.717318726E1,-5.695624161E1
8.753086413E0,2.067453766E1,-4.496957397E1,-5.513039398E1
8.772954798E0,1.737270737E1,-4.913495636E1,-5.214533997E1
8.792854329E0,1.558270550E1,-6.627546692E1,-5.193766785E1
8.812753392E0,8.827066422E0,-7.404828644E1,-3.748055649E1
8.832642819E0,2.294124603E0,-6.379053497E1,-1.834541321E1
8.852535475E0,3.285452843E0,-6.228340149E1,-1.371011353E1
8.872415059E0,-6.812952995E0,-6.544592285E1,-9.901556969E0
8.892316413E0,-1.422490311E1,-4.990672302E1,4.923954487E0
8.912188965E0,-1.251326561E1,-3.896154404E1,1.138010979E1
8.932110371E0,-7.597515106E0,-3.247362137E1,9.146720886E0
8.951989434E0,-1.646795750E0,-2.550508881E1,5.723219872E0
8.971880423E0,1.880393505E0,-1.777429771E1,4.079039574E0
8.991752767E0,4.906166553E0,-1.124859810E1,2.514432907E0
9.011653131E0,7.141964436E0,-7.127861023E0,1.312579632E0
9.031561569E0,7.287687778E0,-3.556199074E0,-1.197160244E0
9.051455267E0,6.911608219E0,-1.094688892E0,-3.710910797E0
9.071311152E0,6.321035385E0,7.337517738E-1,-2.978629827E0
9.091208027E0,4.775457382E0,1.067580700E0,-1.671640873E0
9.111101934E0,4.108380795E0,1.837277412E0,-2.712337017E0
9.130978756E0,3.793916225E0,4.101263523E0,-3.145076513E0
9.150890059E0,1.697948456E0,6.161364555E0,-1.981734157E0
9.170792038E0,-9.618940353E-1,5.651487827E0,-1.588038325E0
9.190651777E0,-2.348906040E0,4.533321381E0,-1.183413863E0
9.210578131E0,-1.394906521E0,3.338180542E0,-3.335537910E-1
9.230453236E0,-1.264518976E0,2.563519478E0,-1.359394073E0
9.250360267E0,-3.021559238E0,2.970971107E0,-2.461828709E0
9.270248392E0,-5.306204319E0,3.111530304E0,-1.985579491E0
9.290107923E0,-5.767282486E0,2.704195976E0,4.134672880E-1
9.310032975E0,-4.522322655E0,2.509549141E0,6.871856451E-1
9.329886725E0,-3.382754564E0,2.014433861E0,-1.163402796E0
9.349789902E0,-3.353611946E0,1.208288193E0,-1.097724795E0
9.369687715E0,-3.056990623E0,6.582765579E-1,1.524185181E0
9.389610319E0,-2.013834953E0,1.078166962E0,2.440326691E0
9.409508548E0,-1.444036484E0,1.231142044E0,4.315376282E-5
9.429369902E0,-1.435563326E0,1.009561539E0,-1.765291691E0
9.449261986E0,-1.995264292E0,4.899988174E-1,-1.854941249E0
9.469158600E0,-2.281338215E0,6.450929642E-1,-9.202593565E-1
9.489031048E0,-2.193960667E0,1.133199692E0,-5.969138145E-1
9.508923236E0,-1.851965070E0,1.386250496E0,-1.117225647E0
9.528813236E0,-2.042227268E0,1.193513870E0,-9.794546366E-1
9.548678184E0,-2.317532063E0,8.573427200E-1,-6.647142172E-1
9.568605371E0,-2.046922207E0,7.993478775E-1,-8.386135101E-2
9.588496621E0,-1.492816329E0,1.007351875E0,1.090183258E-1
9.608377871E0,-1.028759718E0,1.059243202E0,-1.628351212E-1
9.628283079E0,-7.885332108E-1,7.773752213E-1,-7.465481758E-2
9.648155944E0,-7.961993217E-1,5.064525604E-1,9.772145748E-2
9.668064069E0,-7.935883999E-1,5.604619980E-1,-8.294236660E-2
9.687918340E0,-7.225899696E-1,5.476531982E-1,-2.860666513E-1
9.707831777E0,-6.298408508E-1,4.244174957E-1,-1.444088221E-1
9.727737246E0,-3.530101776E-1,3.024721146E-1,1.984374523E-1
9.747643548E0,2.326982021E-1,1.239175797E-1,5.080263615E-1
9.767549017E0,4.692268372E-1,-1.870441437E-2,2.492071390E-1
9.787376725E0,3.484437466E-1,6.286716461E-2,-1.179596186E-1
9.807290163E0,2.771518230E-1,2.554445267E-1,-6.052863598E-2
9.827174277E0,3.928112984E-2,1.439781189E-1,-4.385507107E-2
9.847059694E0,-1.676702499E-2,-3.863525391E-2,8.714640141E-2
9.866965267E0,1.595759392E-2,6.236076355E-2,6.123018265E-2
9.886822298E0,-1.131589413E-1,4.576759338E-1,-1.747575998E-1
9.906726361E0,-5.052678585E-1,4.451818466E-1,-1.679970026E-1
9.926641361E0,-8.115940094E-1,2.463407516E-1,8.070349693E-2
9.946558079E0,-9.577462673E-1,2.533969879E-1,1.414340734E-1
9.966396881E0,-1.058314085E0,5.159749985E-1,2.361524105E-2
9.986281309E0,-1.186105013E0,5.438318253E-1,-1.382336617E-1
1.000621886E1,-1.202507257E0,3.284091949E-1,-2.497967482E-1
1.002608188E1,-9.367592335E-1,2.688674927E-1,-2.936435938E-1
1.004594365E1,-3.861808777E-1,4.199419022E-1,-3.777433634E-1
1.006584105E1,-1.183931828E-1,3.063564301E-1,-1.548397541E-1
1.008572370E1,-2.682347298E-1,1.784038544E-2,3.208490610E-1
1.010562928E1,-2.205028534E-1,-2.156496048E-1,4.362146854E-1
1.012557001E1,3.559067249E-1,-1.901941299E-1,3.743767738E-1
1.014541553E1,1.054043293E0,-1.790437698E-1,3.632991314E-1
1.016529282E1,1.565864801E0,-2.096290588E-1,5.700850487E-1
1.018521751E1,1.845177174E0,-7.004375458E-1,8.137410879E-1
1.020509178E1,2.151955128E0,-1.383396149E0,1.204823256E0
1.022499745E1,3.081861973E0,-1.742219925E0,1.133907676E0
1.024486766E1,4.218368530E0,-2.207387447E0,5.793367624E-1
1.026477537E1,5.013648033E0,-3.595766068E0,-5.349135399E-2
1.028466922E1,5.009310722E0,-5.012747765E0,-8.843309283E-1
1.030455329E1,5.392135620E0,-5.570579529E0,-2.108944654E0
1.032445100E1,5.368528843E0,-5.104500294E0,-2.945985317E0
1.034434329E1,3.931497097E0,-4.164779186E0,-2.466296434E0
1.036422126E1,3.082922935E0,-4.091826439E0,-1.915618300E0
1.038410397E1,3.703767776E0,-3.649337769E0,-3.313856423E-1
1.040400975E1,2.649036407E0,-1.685874462E0,8.892143965E-1
1.042388105E1,1.605964184E0,2.950577736E-1,1.680062890E0
1.044380058E1,1.764433861E0,5.632309914E-1,3.284420729E0
1.046370620E1,1.006529808E0,3.035255432E0,6.326187134E0
1.048360751E1,1.811207771E0,8.188991547E0,1.025961304E1
1.050347251E1,5.384278297E0,1.066975975E1,1.300854492E1
1.052336032E1,9.551918030E0,1.000492668E1,1.479687500E1
1.054324391E1,1.579613018E1,1.443130112E1,1.786163521E1
1.056313865E1,2.495207405E1,2.449665833E1,1.934669304E1
1.058300167E1,3.355273819E1,3.743291855E1,1.282461643E1
1.060291324E1,3.184720612E1,4.459340286E1,2.155526638E0
1.062278657E1,2.115499496E1,3.382089615E1,-7.318646431E0
1.064268600E1,1.772976685E1,1.445358658E1,-1.572318649E1
1.066259683E1,2.840902138E1,-9.242691994E0,-4.128236008E1
1.068253360E1,4.849935913E1,-4.098347473E1,-6.338214874E1
1.070237209E1,3.372159195E1,-6.825068665E1,-3.451656342E1
1.072226235E1,-1.513564491E1,-5.949512482E1,-3.506869507E1
1.074215704E1,-4.112570572E1,-3.678478622E1,-2.438300323E1
1.076202350E1,-1.329760742E1,-2.516019058E1,-9.183523178E0
1.078191152E1,1.567753029E1,-4.743219757E1,-1.174707890E1
1.080180162E1,1.272183990E1,-4.845706558E1,1.983841896E0
1.082169292E1,-4.004844666E0,-3.459165192E1,1.245004463E1
1.084158730E1,-1.551336956E1,-2.465193558E1,1.306808853E1
1.086152126E1,-1.301563740E1,-1.743613815E1,1.155029869E1
1.088141912E1,-5.066800117E0,-1.111136436E1,9.994176865E0
1.090125443E1,-2.946352959E-1,-4.711284161E0,8.755353928E0
1.092117495E1,1.085423470E0,-1.408366323E0,5.528987885E0
1.094104001E1,3.114577770E0,3.485076427E-1,2.715678215E0
1.096094808E1,4.237168312E0,1.756679058E0,7.655186653E-1
1.098084266E1,2.247280121E0,1.800510406E0,-1.276385069E0
1.100072985E1,5.351076126E-1,2.395519733E0,-2.603820324E0
1.102060011E1,3.582143784E-1,3.472260475E0,-2.752212763E0
1.104052719E1,1.502345562E0,4.413008213E0,1.468467712E-2
1.106037870E1,5.929098129E-1,2.377734661E0,2.583252430E0
1.108027574E1,-1.889991045E0,3.631696701E-1,1.979269505E0
1.110017261E1,-2.786090374E0,6.276268959E-1,-5.089329481E-1
1.112005870E1,-2.111362696E0,2.057684898E0,-1.337048769E0
1.113997449E1,-1.902793884E0,2.973350525E0,2.537026405E-1
1.115982777E1,-2.434341431E0,2.995892525E0,1.594028711E0
1.117975183E1,-3.120114326E0,2.592894554E0,9.981750250E-1
1.119965558E1,-2.992101669E0,1.798069000E0,1.114588976E-1
1.121956896E1,-2.260117769E0,1.480435371E0,2.493052483E-1
1.123941490E1,-1.683171988E0,1.706615448E0,9.736483097E-1
1.125928709E1,-1.325053215E0,1.675518036E0,1.550983787E0
1.127920756E1,-1.125397921E0,2.112625122E0,6.879912615E-1
1.129909839E1,-1.131546259E0,1.779172897E0,-2.892885804E-1
1.131895943E1,-1.409495115E0,1.540916443E0,-6.514701843E-1
1.133887631E1,-1.269015074E0,1.827976227E0,-6.538562775E-1
1.135875339E1,-1.662148952E0,2.008046150E0,-1.895595789E-1
1.137863402E1,-2.325553417E0,1.415372849E0,1.992332935E-2
1.139854620E1,-2.608995199E0,1.053792953E0,-7.893538475E-2
1.141846365E1,-2.383882999E0,1.173384666E0,-2.418316603E-1
1.143833110E1,-1.887493014E0,1.442699432E0,-1.381374598E-1
1.145820376E1,-1.529263139E0,9.639139175E-1,1.808243990E-1
1.147808251E1,-1.064689636E0,3.463668823E-1,7.105112076E-3
1.149799782E1,-8.011431694E-1,4.754266739E-1,-5.718803406E-2
1.151787787E1,-8.298549652E-1,6.163005829E-1,-4.619109631E-2
1.153777438E1,-6.117441654E-1,3.227729797E-1,4.002690315E-3
1.155769620E1,-4.172463417E-1,2.997064590E-1,-1.154252291E-1
1.157756282E1,-4.536306858E-1,5.951519012E-1,-4.587658644E-1
1.159743485E1,-4.422006607E-1,4.508371353E-1,-4.628093243E-1
1.161732428E1,-7.743358612E-2,1.380920410E-1,-3.821815252E-1
1.163722532E1,5.415487289E-1,1.044750214E-1,-5.313653350E-1
1.165714219E1,8.354728222E-1,3.892726898E-1,-5.286107063E-1
1.167701600E1,6.514499187E-1,3.714952469E-1,-3.482130766E-1
1.169688141E1,5.081343651E-2,9.166526794E-2,-5.102205276E-2
1.171679287E1,-4.361419678E-1,-7.209587097E-2,4.376792908E-2
1.173667584E1,-3.303899765E-1,2.341365814E-2,-6.580817699E-2
1.175658339E1,1.599218845E-1,2.147197723E-2,-2.155712843E-1
1.177657219E1,4.733059406E-1,-2.490224838E-1,-3.259348869E-1
1.179635016E1,3.872020245E-1,-3.328094482E-1,-7.373511791E-2
1.181624449E1,2.920036316E-1,-4.933452606E-2,5.159080029E-2
1.183614636E1,5.682559013E-1,8.628177643E-2,-3.113579750E-2
1.185603532E1,1.097911835E0,-2.927684784E-2,3.934633732E-2
1.187592032E1,1.397243738E0,-8.943748474E-2,1.666525602E-1
1.189579933E1,1.185854197E0,-9.600257874E-2,1.284852028E-1
1.191570855E1,8.069510460E-1,-2.014970779E-1,2.757819891E-1
1.193564277E1,8.311474323E-1,-4.674530029E-1,3.793345690E-1
1.195554240E1,1.081718206E0,-4.695949554E-1,4.142395258E-1
1.197537928E1,1.194670677E0,-4.911375046E-1,2.955124378E-1
1.199527266E1,1.177681446E0,-7.698173523E-1,4.057183266E-1
1.201514954E1,1.260813951E0,-1.195469856E0,7.044575214E-1
1.203502277E1,1.556438208E0,-1.668664455E0,6.078162193E-1
1.205491152E1,1.936641932E0,-1.837902546E0,3.331294060E-1
1.207483115E1,2.499838591E0,-1.985469818E0,1.648294926E-1
1.209468449E1,3.038294792E0,-2.526250839E0,1.536989212E-2
1.211457688E1,3.857304096E0,-3.307593346E0,-4.288067818E-1
1.213449610E1,5.101715088E0,-3.513531685E0,-1.333549976E0
1.215437146E1,5.353430748E0,-3.423171997E0,-3.127178669E0
1.217428339E1,3.384550095E0,-3.401388168E0,-4.054415226E0
1.219415855E1,1.169460297E0,-3.512197495E0,-2.694796801E0
1.221404636E1,1.916143894E0,-2.956743240E0,-1.290869951E0
1.223392933E1,3.677310467E0,-3.085649967E0,-9.416653514E-1
1.225383266E1,3.345283031E0,-2.745856285E0,-1.132234931E-1
1.227371855E1,1.965875626E0,-1.416369438E0,1.640696049E0
1.229361912E1,1.934570789E0,-7.980375290E-1,3.032475710E0
1.231352761E1,3.269682884E0,1.287646294E-1,4.349244595E0
1.233341256E1,4.552316666E0,2.864079475E-1,7.592407703E0
1.235331173E1,2.622721672E0,1.543795109E0,1.033297729E1
1.237321355E1,1.480163574E0,3.287592888E0,1.124726677E1
1.239309141E1,6.095597267E0,4.075250626E0,1.163680077E1
1.241296042E1,1.460999966E1,6.216566086E0,1.209892750E1
1.243285074E1,2.225527954E1,1.159963131E1,1.127538490E1
1.245276360E1,2.627989960E1,2.092828751E1,7.936929703E0
1.247262438E1,3.005262756E1,3.042985916E1,2.531378746E0
1.249253641E1,3.652430344E1,3.441236496E1,-1.174349022E1
1.251240313E1,4.396372604E1,2.480166817E1,-3.101197052E1
1.253231381E1,4.753342819E1,1.100622368E1,-5.045545959E1
1.255221089E1,4.289286804E1,-6.148315430E0,-6.893591309E1
1.257210157E1,2.801077080E1,-2.326268959E1,-6.402986908E1
1.259196844E1,1.767061424E1,-3.422434616E1,-6.143033600E1
1.261186834E1,8.315759659E0,-4.740501785E1,-5.781481934E1
1.263175433E1,-7.376024246E0,-5.903923416E1,-4.060084152E1
1.265165480E1,-2.004812431E1,-5.937662506E1,-2.389606094E1
1.267155652E1,-1.745713043E1,-5.030084610E1,-1.371906185E1
1.269144975E1,-1.035130310E1,-4.655490112E1,-8.907207489E0
1.271131490E1,-1.468880177E0,-4.275936127E1,-1.576803565E0
1.273122699E1,3.601208687E0,-3.677022552E1,4.836400986E0
1.275110891E1,2.536311150E0,-2.933866119E1,7.171457291E0
1.277100115E1,2.027947426E0,-2.178552437E1,6.822197437E0
1.279089324E1,2.844855309E0,-1.446359825E1,4.674839020E0
1.281077699E1,7.001834869E0,-8.210253716E0,2.374808550E0
1.283067902E1,9.297281265E0,-3.490111589E0,2.254153728E0
1.285056282E1,7.811742783E0,-7.084691525E-1,2.405247450E0
1.287050959E1,5.888931274E0,1.494026184E-1,-1.470088959E-2
1.289035058E1,5.319011688E0,1.604228020E0,-2.264500141E0
1.291022110E1,5.895194054E0,3.038986206E0,-2.838215351E0
1.293012928E1,4.128896236E0,3.304224968E0,-1.171335697E0
1.295002391E1,1.090331554E0,3.249195576E0,3.038247824E-1
1.296990870E1,-1.171728134E0,3.234498501E0,-3.721833229E-2
1.298980766E1,-1.611486197E0,2.851374149E0,-1.456852913E0
1.300971537E1,-1.737424612E0,3.263141632E0,-1.132585049E0
1.302959022E1,-2.559911728E0,2.628504753E0,-9.660227299E-1
1.304948360E1,-3.820775747E0,1.535033226E0,-1.203421712E0
1.306934980E1,-4.813703537E0,1.783550262E0,-1.012271643E0
1.308925699E1,-4.502332687E0,1.270778656E0,1.262140989E0
1.310915225E1,-3.195385933E0,6.486396790E-1,2.299779654E0
1.312901396E1,-2.229559898E0,1.326211929E0,1.127362251E-2
1.314893548E1,-1.747832179E0,1.474590302E0,-1.592221737E0
1.316880438E1,-1.257332563E0,1.034584999E0,-1.969746232E0
1.318870626E1,-1.119038105E0,9.556331635E-1,-1.510151386E0
1.320858782E1,-1.326196313E0,1.203889847E0,-8.310637474E-1
1.322851022E1,-2.228105783E0,1.238194466E0,-1.542861581E0
1.324837443E1,-3.089545727E0,8.060426712E-1,-2.176625013E0
1.326824766E1,-3.044371605E0,8.817758560E-1,-1.604433179E0
1.328816079E1,-2.514446497E0,1.675211906E0,-9.634597301E-1
1.330806714E1,-2.191543341E0,1.621514320E0,-9.044588804E-1
1.332792855E1,-1.851421833E0,1.043438911E0,-7.414218187E-1
1.334781928E1,-1.757910728E0,7.011833191E-1,-5.029387474E-1
1.336774683E1,-1.625997543E0,8.813467026E-1,-6.001154184E-1
1.338760834E1,-1.211632729E0,1.310770988E0,-7.048461437E-1
1.340754928E1,-8.673615456E-1,1.114774704E0,-3.643864393E-1
1.342737214E1,-5.342175961E-1,6.102428436E-1,-1.451942921E-1
1.344728813E1,-3.669493198E-1,5.888929367E-1,-1.917154789E-1
1.346716568E1,-5.880036354E-1,9.519252777E-1,-2.335920334E-1
1.348707391E1,-6.299753189E-1,8.737306595E-1,-1.318495274E-1
1.350695594E1,-2.992610931E-1,5.103645325E-1,1.612386703E-1
1.352683277E1,-3.679513931E-3,3.597803116E-1,1.634461880E-1
1.354674308E1,1.541924477E-2,1.106176376E-1,-7.274556160E-2
1.356663506E1,1.982147694E-1,-1.521892548E-1,-6.834769249E-2
1.358657610E1,2.488477230E-1,-1.269598007E-1,7.333707809E-2
1.360639506E1,3.760683537E-1,2.056026459E-1,-1.262068748E-2
1.362628511E1,4.953992367E-1,8.308315277E-2,4.602646828E-2
1.364620964E1,4.881985188E-1,-1.370172501E-1,2.345435619E-1
1.366606808E1,5.943613052E-1,-2.890300751E-1,1.433138847E-1
1.368597454E1,7.449243069E-1,-1.440458298E-1,2.563619614E-2
1.370584959E1,9.055058956E-1,2.514171600E-2,2.592635155E-2
1.372574980E1,9.197123051E-1,-1.415939331E-1,1.845741272E-2
1.374565985E1,6.743576527E-1,-5.088520050E-1,-6.243038177E-2
1.376558490E1,6.686339378E-1,-6.768884659E-1,8.535623550E-2
1.378542688E1,4.668009281E-1,-3.682479858E-1,2.649164200E-1
1.380532943E1,3.991515636E-1,1.546669006E-2,8.594155312E-2
1.382520995E1,4.637129307E-1,-5.281543732E-2,-9.681940079E-3
1.384510256E1,4.812920094E-1,-2.432231903E-1,3.479461670E-1
1.386498688E1,4.446933270E-1,-3.809099197E-1,5.947413445E-1
1.388485574E1,5.149061680E-1,-3.725652695E-1,3.822338581E-1
1.390474980E1,5.460448265E-1,-2.953081131E-1,3.334898949E-1
1.392465287E1,6.553082466E-1,-4.043579102E-1,4.119191170E-1
1.394456652E1,7.725789547E-1,-4.763917923E-1,4.533686638E-1
1.396445172E1,8.433263302E-1,-1.955852509E-1,3.964734077E-1
1.398431516E1,7.923250198E-1,-7.189369202E-2,2.567038536E-1
1.400424173E1,8.381428719E-1,-3.110475540E-1,2.677631378E-1
1.402411943E1,8.628413677E-1,-6.322689056E-1,2.232518196E-1
1.404397829E1,7.562785149E-1,-9.535369873E-1,2.323255539E-1
1.406387022E1,1.029615164E0,-1.075557232E0,4.821429253E-1
1.408377370E1,1.646032095E0,-1.391265392E0,2.507319450E-1
1.410368985E1,2.136041641E0,-1.763737679E0,-4.490592480E-1
1.412357256E1,2.555567026E0,-1.698165894E0,-1.308053493E0
1.414342495E1,3.029414892E0,-2.199735641E0,-1.681091189E0
1.416333433E1,3.109490871E0,-3.127905846E0,-1.663741946E0
1.418324443E1,2.895524502E0,-3.599246025E0,-1.648475289E0
1.420312397E1,2.914152622E0,-3.458329678E0,-1.561169147E0
1.422303568E1,3.060920715E0,-3.320995331E0,-1.071081042E0
1.424288110E1,3.146168709E0,-3.200540066E0,-6.774613857E-1
1.426279167E1,3.171776295E0,-2.612465858E0,-8.126281500E-1
1.428269089E1,2.937498569E0,-2.028155804E0,-6.243557930E-1
1.430256636E1,3.066090584E0,-2.243732929E0,1.400096416E0
1.432247558E1,2.879302979E0,-1.904661655E0,4.579026699E0
1.434237506E1,3.445170879E0,-4.106965065E-1,6.090392590E0
1.436224980E1,4.634700775E0,1.737445831E0,8.479660034E0
1.438214167E1,6.433025360E0,4.453746796E0,1.576062107E1
1.440201761E1,9.453360558E0,6.076728821E0,1.125758362E1
1.442194912E1,1.559339333E1,9.997119904E0,4.607800484E0
1.444179355E1,2.212338257E1,1.852942657E1,9.838057756E-1
1.446170824E1,2.361863518E1,2.664942169E1,-2.451101303E0
1.448161370E1,2.158622742E1,3.134897232E1,-8.492622375E0
1.450149803E1,2.195594597E1,3.081818771E1,-2.013506317E1
1.452139048E1,2.599812317E1,2.510275269E1,-3.808708191E1
1.454126022E1,2.768074036E1,1.771710396E1,-5.256484222E1
1.456117318E1,2.419264984E1,6.778767586E0,-5.829787445E1
1.458107219E1,2.134402084E1,-1.125372410E1,-7.029837036E1
1.460094600E1,1.575912952E1,-2.850354958E1,-7.481626892E1
1.462081709E1,4.911060333E0,-4.554677582E1,-6.634337616E1
1.464071646E1,-1.127139950E1,-6.283552170E1,-4.900342178E1
1.466062141E1,-1.977820587E1,-6.232993698E1,-2.607010078E1
1.468053219E1,-1.725279617E1,-5.458372116E1,-1.305681610E1
1.470037844E1,-7.161290646E0,-4.565270233E1,-7.199001312E0
1.472027105E1,2.851006508E0,-3.921638489E1,-3.487117529E0
1.474018506E1,1.049379539E1,-3.418254852E1,1.958396673E0
1.476007891E1,1.219890022E1,-2.406469345E1,7.112398148E0
1.477994079E1,1.043377876E1,-1.530045700E1,6.520537376E0
1.479983777E1,1.007885742E1,-9.174116135E0,2.831327677E0
1.481975600E1,1.275865459E1,-4.271416187E0,1.864527941E0
1.483965308E1,1.147751808E1,-3.329548836E-1,2.321124792E0
1.485954589E1,2.908868790E0,2.001557350E0,1.026400328E0
1.487941881E1,2.669334412E-3,3.837151051E0,-2.451560497E-1
1.489930761E1,1.952338219E0,4.873951912E0,9.754028320E-1
1.491918897E1,3.859090328E0,3.638113022E0,3.874123812E0
1.493907282E1,3.660319805E0,1.643229008E0,3.305527925E0
1.495895412E1,2.320115566E0,1.074865341E0,-7.456498146E-1
1.497887454E1,8.030529022E-1,1.605025291E0,-2.714601040E0
1.499874870E1,-1.001538754E0,2.568059921E0,-1.879536510E0
1.501863620E1,-2.375171185E0,1.957064629E0,-8.820891380E-3
1.503854808E1,-2.665378094E0,8.612098694E-1,1.018520832E0
1.505842969E1,-2.557840824E0,6.436605453E-1,-4.491385221E-1
1.507833422E1,-2.830384731E0,1.848824501E0,-1.653364301E0
1.509822662E1,-3.369730234E0,2.105857849E0,-1.490549088E0
1.511808511E1,-2.928084850E0,1.588829994E0,1.312124729E-1
1.513797865E1,-2.530939102E0,1.505599976E0,1.135239601E0
1.515786969E1,-1.698825240E0,1.068267822E0,-6.079673767E-4
1.517778225E1,-1.081542730E0,1.152280807E0,-1.251423836E0
1.519767016E1,-9.501659870E-1,1.712788582E0,-2.170596123E0
1.521759792E1,-1.320167303E0,1.603265762E0,-2.244659424E0
1.523744990E1,-1.726702332E0,9.764957428E-1,-1.090123653E0
1.525735277E1,-2.126966476E0,8.369045258E-1,-5.757349730E-1
1.527724199E1,-2.379080772E0,1.296521187E0,-6.541632414E-1
1.529710136E1,-2.505976439E0,1.330270767E0,-1.049924135E0
1.531701152E1,-2.506309032E0,1.063419342E0,-7.978821993E-1
1.533688376E1,-2.179025650E0,1.364033699E0,-5.595880747E-1
1.535678824E1,-2.269514084E0,1.750628471E0,-6.626484394E-1
1.537667719E1,-2.620995522E0,1.601381302E0,-6.071449518E-1
1.539656147E1,-3.090363264E0,1.348874092E0,-4.369601011E-1
1.541652162E1,-2.867646456E0,1.402297020E0,-2.376267910E-1
1.543637370E1,-2.400186539E0,1.608602524E0,-1.583025455E-1
1.545624808E1,-1.674879551E0,1.553916931E0,-3.421555758E-1
1.547615506E1,-1.072562933E0,1.199400902E0,-3.717226982E-1
1.549603141E1,-7.133586407E-1,8.029594421E-1,-9.006273746E-2
1.551590709E1,-2.949724197E-1,7.723083496E-1,5.745458603E-2
1.553581188E1,-4.591441154E-2,6.843070984E-1,-2.183759212E-2
1.555570365E1,9.349966049E-2,2.706604004E-1,1.996159554E-2
1.557559423E1,1.892483234E-1,-2.410411835E-2,-4.569888115E-2
1.559551350E1,2.476432323E-1,6.704425812E-2,-2.636750937E-1
1.561537730E1,3.646578789E-1,-3.601551056E-2,-4.099128246E-1
1.563524975E1,4.012939930E-1,-3.300666809E-1,-2.690806389E-1
1.565516506E1,4.098343849E-1,-6.114587784E-1,-9.487843513E-2
1.567503719E1,5.601429939E-1,-5.908823013E-1,-9.558033943E-2
1.569491344E1,7.633829117E-1,-2.850589752E-1,-1.333963871E-1
1.571482303E1,7.915718555E-1,-2.689266205E-1,1.425409317E-2
1.573469897E1,8.928549290E-1,-4.746217728E-1,2.949872017E-1
1.575461225E1,1.192879200E0,-7.156305313E-1,4.876716137E-1
1.577453105E1,1.265884876E0,-5.872688293E-1,5.607154369E-1
1.579439532E1,1.221022367E0,-3.967657089E-1,5.265805721E-1
1.581428048E1,1.155925035E0,-4.874114990E-1,5.393829346E-1
1.583415428E1,1.234111786E0,-6.589870453E-1,7.397196293E-1
1.585404235E1,1.530763865E0,-5.747833252E-1,8.703320026E-1
1.587396350E1,1.563389540E0,-3.878288269E-1,8.364903927E-1
1.589384188E1,1.462015629E0,-4.798269272E-1,8.394424915E-1
1.591374714E1,1.670352459E0,-6.936731339E-1,7.131028175E-1
1.593365454E1,2.123433352E0,-9.672579765E-1,5.686733723E-1
1.595355886E1,2.408085108E0,-1.085223198E0,5.348935127E-1
1.597339558E1,2.653740644E0,-1.067853928E0,4.560558796E-1
1.599331157E1,2.957877874E0,-1.231739521E0,4.965553284E-1
1.601317495E1,3.221712351E0,-1.700682163E0,3.704349995E-1
1.603307094E1,3.312655687E0,-2.029919147E0,-8.126878738E-2
1.605295636E1,3.446519375E0,-2.142659664E0,-8.796094656E-1
1.607284272E1,3.396385670E0,-2.470622540E0,-1.691998243E0
1.609275266E1,3.135652542E0,-2.831422806E0,-2.565856934E0
1.611264308E1,2.919386387E0,-2.792452812E0,-2.891797543E0
1.613255162E1,2.554167271E0,-2.465504169E0,-2.248051882E0
1.615239522E1,2.186504841E0,-2.744420528E0,-1.991966367E0
1.617229917E1,1.006352425E0,-3.303285599E0,-1.678362966E0
1.619218136E1,-5.155444145E-1,-3.149290085E0,3.235532045E-1
1.621210225E1,-7.799696922E-1,-2.572992802E0,2.728663921E0
1.623199214E1,8.668899536E-2,-2.045953751E0,3.926686287E0
1.625187652E1,1.969037056E-1,-2.093324661E-1,4.176229000E0
1.627173855E1,-1.159572601E-1,2.292368889E0,4.557956696E0
1.629167105E1,5.986795425E-1,5.389043808E0,5.286765575E0
1.631155219E1,2.147614479E0,9.060509682E0,6.735928535E0
1.633147219E1,5.383840561E0,1.338676071E1,7.826182365E0
1.635136985E1,8.751082420E0,1.766069603E1,7.717418194E0
1.637121725E1,1.089110374E1,2.314411163E1,5.826810837E0
1.639112214E1,1.093345070E1,2.986395645E1,2.230158806E0
1.641101365E1,9.324100494E0,3.324937057E1,-3.561859131E0
1.643089756E1,6.657293320E0,2.680429840E1,-1.932084846E1
1.645079537E1,1.246334553E1,9.196618080E0,-5.409347153E1
1.647068219E1,2.377020645E1,-5.915691853E0,-7.631549835E1
1.649058152E1,2.379951286E1,-1.508525562E1,-5.679771423E1
1.651046839E1,1.747365570E1,-2.556627083E1,-7.691911316E1
1.653032870E1,9.795641899E0,-3.464458084E1,-7.010901642E1
1.655024881E1,2.095622635E1,-4.986367798E1,-6.032518387E1
1.657012964E1,2.015296555E1,-7.622190857E1,-5.183469772E1
1.659000443E1,7.844614983E0,-7.490254211E1,-3.193061447E1
1.660992412E1,4.252523422E0,-6.389604568E1,-1.120344353E1
1.662980027E1,-5.147590637E-1,-6.615303040E1,-3.384485722E0
1.664970860E1,-7.189040661E0,-5.532656097E1,4.868792534E0
1.666961022E1,-2.192589760E0,-3.971112823E1,1.164949512E1
1.668948365E1,2.950209618E0,-2.942896843E1,1.145721054E1
1.670934938E1,4.050724030E0,-2.102533340E1,6.263007164E0
1.672925600E1,4.669332981E0,-1.517267323E1,2.453533173E0
1.674913334E1,5.674665451E0,-8.284475327E0,3.781614304E-1
1.676903636E1,6.755022526E0,-3.005330086E0,-7.148489952E-1
1.678893162E1,4.953981400E0,9.567499161E-1,-1.488833427E0
1.680882193E1,4.011775494E0,3.206030846E0,-1.983017325E0
1.682870402E1,4.135708809E0,3.610648155E0,-2.125763655E0
1.684861402E1,2.677290440E0,4.157304764E0,-2.066205502E0
1.686851527E1,4.286670685E-2,4.759296417E0,-2.322156906E0
1.688836178E1,-1.258447647E0,5.059893608E0,-2.824905157E0
1.690825542E1,-1.681868315E0,5.769090652E0,-9.922803044E-1
1.692815938E1,-7.987732887E-1,4.850133896E0,1.806299090E-1
1.694804928E1,-9.529836178E-1,4.406172752E0,-4.471312165E-1
1.696792157E1,-2.389205456E0,4.741156578E0,-1.664131880E0
1.698783912E1,-3.433646441E0,3.958108902E0,-1.858959675E0
1.700771907E1,-3.639911413E0,3.199706078E0,-8.026943803E-1
1.702764428E1,-2.557796240E0,2.300911903E0,1.390370846E0
1.704753016E1,-1.539494753E0,1.239759445E0,1.597680330E0
1.706739334E1,-1.470015049E0,8.617343903E-1,2.342847586E-1
1.708727001E1,-1.625109434E0,7.000770569E-1,-3.803100586E-1
1.710720172E1,-2.316830635E0,7.193298340E-1,-2.377147675E-1
1.712708558E1,-2.029775620E0,4.071073532E-1,3.471603394E-1
1.714697079E1,-1.123566389E0,-2.549180984E-1,4.812912941E-1
1.716685235E1,-1.103637934E0,-9.065341949E-2,4.302989244E-1
1.718673990E1,-1.885314584E0,2.431640625E-1,2.568321228E-1
1.720664022E1,-2.601483345E0,3.051586151E-1,3.745821714E-1
1.722656063E1,-2.376691341E0,1.885681152E-1,5.953285694E-1
1.724639949E1,-1.979016781E0,6.380548477E-1,8.964335918E-2
1.726632214E1,-2.070772171E0,1.335365295E0,-6.690969467E-1
1.728621548E1,-1.755005121E0,1.275457382E0,-1.035632491E0
1.730609183E1,-1.498133421E0,8.347740173E-1,-3.256956339E-1
1.732595860E1,-1.764908671E0,7.906427383E-1,1.567233801E-1
1.734586772E1,-1.969261527E0,1.250126839E0,-2.435231209E-1
1.736575188E1,-2.043722868E0,1.454195023E0,-5.702177286E-1
1.738567287E1,-1.733774662E0,1.274109840E0,-6.129123569E-1
1.740555068E1,-1.384926796E0,9.612302780E-1,-6.095200181E-1
1.742546475E1,-1.330940723E0,8.133049011E-1,-5.136772394E-1
1.744530329E1,-1.320317268E0,9.328918457E-1,-4.571551681E-1
1.746521897E1,-1.103542089E0,1.007049561E0,-6.057757735E-1
1.748508292E1,-8.380868435E-1,1.014821053E0,-4.869922996E-1
1.750497907E1,-8.287222385E-1,7.226543427E-1,-2.194595337E-1
1.752487074E1,-8.839540482E-1,5.309667587E-1,-2.671171427E-1
1.754477146E1,-4.986529350E-1,6.143169403E-1,-5.174225569E-1
1.756467027E1,-1.702320576E-1,8.297224045E-1,-7.249299884E-1
1.758455725E1,3.381609917E-2,7.392120361E-1,-7.664537430E-1
1.760447662E1,-2.170083523E-1,4.943370819E-1,-5.380328298E-1
1.762432610E1,-5.826506615E-1,3.826961517E-1,-4.003751278E-1
1.764421657E1,-4.893364906E-1,4.313926697E-1,-4.336154461E-1
1.766410178E1,1.158788204E-1,4.453048706E-1,-4.884682894E-1
1.768402339E1,5.098607540E-1,3.087329865E-1,-5.753545761E-1
1.770389287E1,5.262899399E-1,1.472206116E-1,-4.635958672E-1
1.772379022E1,3.358175755E-1,2.020835876E-2,-1.870502234E-1
1.774368360E1,4.374234676E-1,-1.557998657E-1,5.288243294E-3
1.776357964E1,7.485668659E-1,-2.576475143E-1,5.889248848E-2
1.778347740E1,1.057278872E0,-3.146381378E-1,4.048013687E-2
1.780335287E1,1.275667429E0,-5.081672668E-1,1.220293045E-1
1.782325162E1,1.527632236E0,-7.455177307E-1,5.115253925E-1
1.784313605E1,1.967646360E0,-9.489784241E-1,8.139470816E-1
1.786304152E1,2.254723787E0,-9.498796463E-1,8.473367691E-1
1.788290803E1,2.254055262E0,-8.802680969E-1,8.553955555E-1
1.790282725E1,2.357151270E0,-1.123926640E0,9.770903587E-1
1.792268844E1,2.952795029E0,-1.443932533E0,1.230343819E0
1.794258870E1,3.677218676E0,-1.606489658E0,1.149385691E0
1.796251266E1,4.466226101E0,-1.821863174E0,6.997098923E-1
1.798237053E1,5.129285812E0,-2.292575359E0,3.548531532E-1
1.800224542E1,5.348055840E0,-2.816966534E0,3.390030861E-1
1.802213834E1,4.931661606E0,-3.033107758E0,1.648247242E-1
1.804201876E1,4.078691483E0,-2.330492020E0,-6.019508839E-1
1.806192068E1,2.986649513E0,-1.662635326E0,-1.710772157E0
1.808183933E1,1.964492798E0,-1.760097027E0,-2.175238371E0
1.810171261E1,7.229695320E-1,-1.700401783E0,-2.285478592E0
1.812162292E1,-6.482124329E-1,-1.416104794E0,-2.925080776E0
1.814151751E1,1.196498871E-1,-2.269926548E0,-4.240841389E0
1.816135589E1,1.976547718E0,-2.481170654E0,-4.759884834E0
1.818126141E1,1.759335041E0,-1.888795853E0,-4.213023186E0
1.820114740E1,1.093768120E0,-2.021099091E0,-3.863100529E0
1.822103646E1,1.384373188E0,-2.819533825E0,-3.165071487E0
1.824092407E1,6.920681000E-1,-4.050389290E0,-2.338806629E0
1.826081923E1,-8.968973160E-2,-4.202816486E0,-3.526538610E-3
1.828071870E1,4.491772652E-1,-3.282444000E0,3.845815182E0
1.830060412E1,1.698154926E0,-1.576089382E0,7.204213619E0
1.832052063E1,2.660221100E0,2.393730640E0,9.258612633E0
1.834040402E1,4.256561279E0,8.536100388E0,1.066619015E1
1.836030761E1,7.588955879E0,1.807874107E1,1.127514076E1
1.838020438E1,1.500160408E1,3.016922188E1,9.351978302E0
1.840009298E1,2.267219162E1,4.124375916E1,5.480510712E0
1.841997881E1,2.095975494E1,5.284403992E1,3.772090673E-1
1.843986558E1,1.018713474E1,5.313940430E1,-1.494070911E1
1.845977141E1,7.768508911E0,3.399681473E1,-5.249015808E1
1.847966329E1,1.913822937E1,1.111040020E1,-7.902275848E1
1.849957657E1,2.597360229E1,-1.424864531E-1,-7.911749268E1
1.851940818E1,2.142811584E1,-1.653986168E1,-7.933911133E1
1.853932699E1,1.296810532E1,-3.978201675E1,-7.969567108E1
1.855921089E1,1.281880188E1,-6.784518433E1,-6.402655029E1
1.857910542E1,1.991028786E0,-7.264767456E1,-4.119089508E1
1.859899808E1,-4.960964203E0,-5.754538727E1,-2.015857887E1
1.861888204E1,-1.941126347E0,-5.102226639E1,-9.933569908E0
1.863874396E1,1.735986710E0,-4.186941528E1,-6.393063068E0
1.865866985E1,5.840127468E0,-3.710542679E1,-1.950214148E0
1.867853615E1,8.120482445E0,-2.820671082E1,2.032002449E0
1.869843548E1,6.972798824E0,-2.031090927E1,2.182144642E0
1.871834568E1,7.363534927E0,-1.466704941E1,-5.344598293E-1
1.873822725E1,7.614937305E0,-8.935058594E0,-8.512830734E-2
1.875811667E1,6.034636497E0,-4.691605091E0,2.891101837E0
1.877801714E1,4.481404781E0,-2.100763321E0,2.863918543E0
1.879787808E1,5.317246437E0,-7.951312065E-1,-9.396166801E-1
1.881778730E1,6.132019997E0,2.751855850E-1,-1.395641923E0
1.883769839E1,3.899925709E0,9.646015167E-1,1.058597565E0
1.885757381E1,2.878894806E-1,1.339407444E0,2.211923361E0
1.887746501E1,-1.879725456E-1,1.320022583E0,3.184580803E-2
1.889734329E1,5.170311928E-1,1.889195919E0,-2.703044891E0
1.891725490E1,7.549319267E-1,2.502261162E0,-2.910571814E0
1.893711542E1,9.174590111E-1,2.726335526E0,-1.201933861E0
1.895701350E1,7.869224548E-1,2.484300613E0,-2.355557680E-1
1.897692657E1,-2.067060471E-1,2.719786644E0,-1.508138180E0
1.899679344E1,-1.242969990E0,2.268383980E0,-3.562546253E0
1.901668292E1,-1.710137606E0,1.906664848E0,-4.439523697E0
1.903656777E1,-1.696419239E0,2.367549896E0,-2.509026766E0
1.905653558E1,-1.930707455E0,2.516815186E0,-8.498544693E-1
1.907635303E1,-2.808222532E0,2.081427574E0,-1.305046320E0
1.909624298E1,-3.330031395E0,1.936655045E0,-2.357850313E0
1.911613407E1,-2.891754627E0,2.494719505E0,-2.107940197E0
1.913601443E1,-2.221761227E0,3.128643036E0,-7.546565533E-1
1.915591360E1,-2.080149651E0,2.377048492E0,-3.659633398E-1
1.917582272E1,-2.181847811E0,2.064356804E0,-9.066780210E-1
1.919568662E1,-2.404232502E0,2.095094681E0,-1.497311354E0
1.921560808E1,-2.569231749E0,1.920653343E0,-1.067818403E0
1.923552824E1,-2.223618984E0,1.859651566E0,-1.396352053E-1
1.925536917E1,-2.553907633E0,2.163620949E0,-3.347620964E-1
1.927530074E1,-2.953622818E0,1.682683945E0,-8.047811985E-1
1.929517975E1,-2.914777040E0,1.319972992E0,-8.973958492E-1
1.931505308E1,-2.840926647E0,1.538590431E0,-8.828961849E-1
1.933492949E1,-2.361858845E0,1.218356133E0,-9.067279100E-1
1.935484766E1,-2.280872583E0,9.426536560E-1,-8.567867279E-1
1.937470011E1,-2.565073013E0,9.648981094E-1,-9.210302830E-1
1.939462266E1,-2.367385387E0,1.171366692E0,-8.871988058E-1
1.941450100E1,-1.773517251E0,1.124165535E0,-5.727994442E-1
1.943438563E1,-1.175927639E0,7.015800476E-1,-4.453465939E-1
1.945427995E1,-9.886889458E-1,3.931455612E-1,-4.712347984E-1
1.947417574E1,-1.068046570E0,7.569103241E-1,-5.970029831E-1
1.949408282E1,-6.752882004E-1,9.825954437E-1,-8.410594463E-1
1.951394386E1,-4.337961674E-1,7.285642624E-1,-7.730345726E-1
1.953384449E1,-3.485305309E-1,3.755760193E-1,-4.037317038E-1
1.955375829E1,-3.414323330E-1,3.002643585E-1,-3.252264261E-1
1.957367522E1,-1.161980629E-1,5.415134430E-1,-4.670884609E-1
1.959357016E1,1.005251408E-1,5.353078842E-1,-4.852721691E-1
1.961339235E1,2.091844082E-1,1.690092087E-1,-4.263465405E-1
1.963329209E1,9.767889977E-2,3.235816956E-2,-3.163982630E-1
1.965321381E1,-9.928274155E-2,1.345415115E-1,-3.077710867E-1
1.967309032E1,1.100318432E-1,2.372093201E-1,-4.592729807E-1
1.969296886E1,1.806051731E-1,1.457223892E-1,-4.968297482E-1
1.971286641E1,7.765769958E-2,-1.121673584E-1,-3.401899338E-1
1.973274428E1,1.039869785E-1,-2.444000244E-1,-2.569258213E-1
1.975262777E1,3.557646275E-1,-4.428100586E-2,-2.403594255E-1
1.977256860E1,6.555633545E-1,6.333923340E-2,-2.159351110E-1
1.979243943E1,9.726696014E-1,-1.713676453E-1,-1.374641657E-1
1.981232396E1,9.555969238E-1,-3.230524063E-1,2.143692970E-2
1.983221068E1,7.063117027E-1,-3.118124008E-1,1.405038834E-1
1.985211881E1,4.710485935E-1,-2.217769623E-1,2.495265007E-1
1.987199511E1,4.651257992E-1,-2.870578766E-1,4.429297447E-1
1.989190079E1,7.247481346E-1,-3.857269287E-1,5.474429131E-1
1.991176808E1,1.034884930E0,-2.958030701E-1,6.133916378E-1
1.993166089E1,1.079656124E0,-2.841968536E-1,7.554726601E-1
1.995156100E1,1.171572208E0,-4.694042206E-1,8.965041637E-1
1.997145209E1,1.683628321E0,-6.781024933E-1,1.130882502E0
1.999132469E1,2.316298246E0,-8.223695755E-1,1.216734409E0
2.001124016E1,2.498487949E0,-9.900579453E-1,1.103644133E0
2.003111001E1,2.272891521E0,-1.118379116E0,9.625003338E-1
2.005099053E1,2.079638004E0,-1.265447617E0,8.018293381E-1
2.007087245E1,2.041053057E0,-1.109143257E0,5.851352215E-1
2.009075803E1,2.144843817E0,-9.502401352E-1,2.207889557E-1
2.011064949E1,2.368231297E0,-1.287525177E0,-5.212736130E-2
2.013055126E1,2.684629440E0,-1.742939472E0,-2.578363419E-1
2.015046376E1,2.955954552E0,-2.087222576E0,-5.774464607E-1
2.017036100E1,3.072340965E0,-1.953911781E0,-1.015389919E0
2.019022949E1,3.051321030E0,-1.887947083E0,-1.554492474E0
2.021013475E1,2.540201664E0,-2.328301430E0,-1.983913660E0
2.023000449E1,2.074725628E0,-2.769707680E0,-2.576601982E0
2.024988912E1,1.710464954E0,-3.405455112E0,-2.754201174E0
2.026979865E1,4.093956947E-1,-4.272224426E0,-2.089072704E0
2.028968490E1,-6.599812508E-1,-4.915786743E0,-1.148416042E0
2.030958350E1,-1.408275843E0,-5.255940437E0,-6.309036016E-1
2.032952824E1,-2.405204535E0,-4.676939964E0,-5.714684725E-1
2.034937808E1,-3.222283602E0,-4.179035187E0,3.768731952E-1
2.036926673E1,-2.863565207E0,-2.672214985E0,2.530529976E0
2.038913303E1,-1.881772041E0,2.831349373E-1,5.021865368E0
2.040905079E1,3.005504608E-3,4.639520168E0,7.080405712E0
2.042894256E1,3.422148705E0,1.017631626E1,8.164159775E0
2.044884548E1,9.294189453E0,1.670801735E1,8.240922928E0
2.046870355E1,1.709538460E1,2.507232285E1,8.208750725E0
2.048858485E1,2.351676178E1,3.521028900E1,7.474880219E0
2.050852292E1,2.303059578E1,4.477042007E1,2.458348036E0
2.052840152E1,1.479049301E1,4.615810013E1,-1.191171741E1
2.054825730E1,1.331846809E1,2.888827705E1,-3.915900421E1
2.056815511E1,2.769150734E1,8.567437172E0,-7.626760101E1
2.058803506E1,3.328384399E1,-1.032201862E1,-7.241622925E1
2.060795422E1,3.271424103E1,-1.779440308E1,-6.670182800E1
2.062784308E1,2.472420692E1,-3.639733505E1,-8.010110474E1
2.064771803E1,1.612360764E1,-4.995976639E1,-6.159254456E1
2.066763006E1,7.653514862E0,-6.405858612E1,-4.737166214E1
2.068755542E1,1.185220718E0,-6.262882233E1,-3.227412033E1
2.070741199E1,-1.249578953E0,-5.956117630E1,-2.168631363E1
2.072729756E1,-1.120240021E1,-5.829088211E1,-1.503198528E1
2.074719912E1,-1.286907578E1,-4.391182327E1,-4.491610527E0
2.076707891E1,-6.456445217E0,-3.602861404E1,2.674962044E0
2.078697313E1,-1.100958824E0,-2.699642754E1,4.121060371E0
2.080686016E1,7.733521461E-1,-2.069352913E1,2.347196579E0
2.082673980E1,9.277982712E-1,-1.513309669E1,1.144623756E0
2.084662183E1,2.369252682E0,-9.610172272E0,1.917584419E0
2.086659412E1,4.004344463E0,-5.639873505E0,3.405803204E0
2.088640152E1,4.850040913E0,-3.796026230E0,3.824895382E0
2.090629157E1,3.764804840E0,-2.058358669E0,2.275587559E0
2.092620672E1,2.158939362E0,8.032846451E-2,6.777548790E-1
2.094608683E1,1.165029526E0,1.754502296E0,-1.140613556E-1
2.096599360E1,2.270659447E0,2.309461117E0,-2.847361565E-1
2.098587251E1,2.240900517E0,3.218599796E0,3.037314415E-1
2.100575001E1,1.320927620E0,3.958616257E0,2.001643181E-2
2.102569370E1,8.178396225E-1,3.812334061E0,-1.958173156E0
2.104559480E1,7.894105911E-1,3.348272324E0,-3.039950132E0
2.106543511E1,1.159290314E0,4.202007771E0,-8.699851036E-1
2.108532667E1,-5.736150742E-1,3.994402885E0,1.191098452E0
2.110521063E1,-1.895739555E0,3.029630661E0,1.607277393E-1
2.112511839E1,-1.496612072E0,2.119315147E0,-1.555884838E0
2.114498334E1,-3.281431198E-1,2.328857422E0,-1.420614243E0
2.116489464E1,-4.041099548E-1,2.763090134E0,-1.111994982E0
2.118478303E1,-1.479235888E0,2.174229622E0,-7.431604266E-1
2.120468673E1,-2.576005697E0,1.558221817E0,-8.220344782E-1
2.122459313E1,-2.258899212E0,1.545220375E0,-8.901934624E-1
2.124447100E1,-1.748880863E0,2.151488304E0,-1.549867630E0
2.126432678E1,-1.812456131E0,2.131283760E0,-1.802464724E0
2.128421954E1,-2.555391073E0,1.660239220E0,-8.349720836E-1
2.130411896E1,-3.604462147E0,1.247178078E0,1.964333057E-1
2.132402860E1,-4.077053070E0,1.452634811E0,3.125290871E-1
2.134389542E1,-4.043806076E0,1.545531273E0,-1.020944118E-2
2.136379511E1,-3.692956924E0,1.409040451E0,4.262661934E-2
2.138372079E1,-3.202779055E0,1.447540283E0,-6.156671047E-2
2.140359516E1,-2.665567875E0,1.882231712E0,-3.463689089E-1
2.142351136E1,-1.957877755E0,1.779664040E0,-5.652678609E-1
2.144334886E1,-1.769966125E0,1.437829018E0,-6.627262235E-1
2.146325896E1,-1.946017861E0,1.302169800E0,-4.090924263E-1
2.148315022E1,-2.028636694E0,1.231590271E0,-1.100045443E-1
2.150301646E1,-1.652275562E0,9.938135147E-1,-1.388303041E-1
2.152293407E1,-1.135840654E0,9.228544235E-1,-3.170927763E-1
2.154280792E1,-9.678390026E-1,1.179164886E0,-5.403685570E-1
2.156271855E1,-9.125270844E-1,1.060074806E0,-7.076294422E-1
2.158260683E1,-7.875242233E-1,6.260251999E-1,-6.141571403E-1
2.160251464E1,-8.624434471E-1,3.699836731E-1,-4.483907223E-1
2.162235402E1,-2.959663868E-1,3.447284698E-1,-6.861462593E-1
2.164226105E1,1.558547020E-1,6.720027924E-1,-8.898719549E-1
2.166218350E1,2.402369976E-1,6.273145676E-1,-6.853948832E-1
2.168206318E1,1.190319061E-1,2.274351120E-1,-2.733172178E-1
2.170195298E1,1.079013348E-1,-5.820274353E-3,-2.948307991E-1
2.172183829E1,2.787127495E-1,1.007270813E-1,-2.713695765E-1
2.174172068E1,4.055626392E-1,1.268978119E-1,-1.700317860E-1
2.176162574E1,4.819924831E-1,-2.442722321E-1,-2.544784546E-1
2.178151772E1,5.634622574E-1,-5.344114304E-1,-1.278976202E-1
2.180140152E1,6.094119549E-1,-4.050865173E-1,-8.893013000E-5
2.182128699E1,7.117297649E-1,-3.143920898E-1,-7.420742512E-2
2.184119912E1,9.184048176E-1,-4.993896484E-1,3.459012508E-2
2.186104553E1,1.157228470E0,-8.069715500E-1,2.057641745E-1
2.188097058E1,1.261645794E0,-7.622957230E-1,2.167853117E-1
2.190083761E1,1.193855524E0,-6.385383606E-1,1.436718702E-1
2.192075839E1,1.230379105E0,-6.886463165E-1,1.501671076E-1
2.194062001E1,1.190651655E0,-7.430534363E-1,4.080649614E-1
2.196051120E1,1.266160011E0,-6.479864120E-1,7.995791435E-1
2.198039396E1,1.343389034E0,-5.599956512E-1,9.322663546E-1
2.200031923E1,1.399305820E0,-6.568756104E-1,1.184858561E0
2.202018480E1,1.359701395E0,-7.186594009E-1,1.361234546E0
2.204006688E1,1.596213579E0,-8.505287170E-1,1.085967302E0
2.205996688E1,2.206838846E0,-1.279825211E0,4.499942064E-1
2.207984975E1,2.313570499E0,-2.212125301E0,-4.017972946E-2
2.209975495E1,2.180354118E0,-3.252773762E0,-6.416127086E-1
2.211965464E1,3.163215160E0,-3.953687668E0,-2.114238501E0
2.213956725E1,4.411268711E0,-4.681744576E0,-3.586933851E0
2.215940646E1,5.604781628E0,-4.182543278E0,-3.618824005E0
2.217931834E1,5.157531261E0,-3.006088257E0,-6.260098815E-1
2.219920365E1,2.194139004E0,-3.884374619E0,1.664662361E-1
2.221909855E1,-6.349701881E-1,-3.963669062E0,-1.873766422E0
2.223898688E1,-2.445449829E-1,-4.006820679E0,-2.144361973E0
2.225888131E1,2.567753792E0,-4.455663681E0,-3.125689030E-1
2.227874167E1,4.136127472E0,-5.058709145E0,1.645070314E0
2.229864761E1,4.033438206E0,-2.353885412E0,3.953443527E0
2.231855287E1,3.849278927E0,2.547528744E0,6.571920872E0
2.233843699E1,5.382949829E0,8.017292023E0,8.446393967E0
2.235834506E1,8.701540947E0,1.532876968E1,8.375698090E0
2.237823464E1,1.293123150E1,2.379349327E1,5.572428703E0
2.239812199E1,1.672881317E1,3.216135025E1,1.079571128E0
2.241801256E1,2.107491684E1,4.109736633E1,-5.229213238E0
2.243787735E1,2.490317345E1,4.579679871E1,-1.906046486E1
2.245779272E1,2.302995872E1,3.624725342E1,-4.202429962E1
2.247770777E1,1.930266762E1,2.255860901E1,-6.115036011E1
2.249759574E1,2.056916428E1,7.419273376E0,-7.677519226E1
2.251747506E1,2.008905792E1,-7.523451328E0,-7.967860413E1
2.253736923E1,1.396968079E1,-2.291840744E1,-8.023664856E1
2.255723949E1,6.998560905E0,-4.187036133E1,-7.663978577E1
2.257712745E1,-3.216284752E0,-5.541323090E1,-6.381208038E1
2.259702324E1,-9.497278214E0,-5.721487808E1,-5.074050140E1
2.261691745E1,-6.896831512E0,-5.858183289E1,-3.461101913E1
2.263680162E1,-8.041170120E0,-6.031733704E1,-2.181748581E1
2.265668902E1,-1.076389122E1,-5.213540268E1,-9.881607056E0
2.267657714E1,-1.009991741E1,-4.176579285E1,-4.684917450E0
2.269646579E1,-3.472899914E0,-3.582708359E1,-1.097550392E-1
2.271636662E1,-3.176908493E0,-2.845902061E1,6.860680103E0
2.273625209E1,-5.678915024E0,-2.077104378E1,1.260290909E1
2.275614709E1,6.020371437E0,-9.061839104E0,5.805210590E0
2.277605798E1,1.187911606E1,-8.162563324E0,-1.666581869E0
2.279594089E1,1.003841400E1,-3.476996660E0,-3.843977451E0
2.281581126E1,8.042413712E0,6.425971985E-1,-4.003899097E0
2.283571178E1,7.742307663E0,3.023966789E0,-2.835880518E0
2.285562022E1,4.936027050E0,2.292369843E0,-1.646191955E0
2.287556350E1,2.054721832E0,2.629501343E0,-1.867703557E0
2.289539672E1,7.084703445E-1,4.291853428E0,-2.317430496E0
2.291528949E1,1.071411133E0,4.548688889E0,-2.533091545E0
2.293518407E1,2.104651928E0,3.648601055E0,-2.267955065E0
2.295505959E1,1.877447128E0,3.241650105E0,-2.638105869E0
2.297495266E1,5.563292503E-1,3.295886517E0,-2.684087276E0
2.299483391E1,-1.034638405E0,3.777804375E0,-2.443396330E0
2.301471678E1,-1.908339739E0,3.787209034E0,-2.417299271E0
2.303463339E1,-2.304266930E0,3.483687401E0,-2.037393570E0
2.305453115E1,-2.118364811E0,3.046330452E0,-2.229793072E0
2.307441094E1,-2.054145336E0,2.502275467E0,-2.094495296E0
2.309427584E1,-2.836690903E0,2.244337082E0,-1.760192156E0
2.311418782E1,-3.507983685E0,2.121232986E0,-1.817586899E0
2.313407391E1,-3.299962997E0,1.987833023E0,-1.879135489E0
2.315397027E1,-2.564954281E0,1.367116928E0,-1.851602554E0
2.317384605E1,-2.140369654E0,7.189197540E-1,-1.682674050E0
2.319377136E1,-2.501083612E0,8.109369278E-1,-1.624767303E0
2.321367303E1,-2.999579668E0,8.699321747E-1,-1.499393702E0
2.323357766E1,-3.724474669E0,5.164756775E-1,-6.324369907E-1
2.325342772E1,-4.234999180E0,1.370601654E-1,1.926426888E-1
2.327331615E1,-3.645620346E0,4.662466049E-1,-3.029910326E-1
2.329322360E1,-2.175220013E0,1.117168427E0,-1.497890711E0
2.331309532E1,-1.272373438E0,1.208915710E0,-1.703071594E0
2.333298886E1,-1.421613693E0,7.482814789E-1,-1.296376824E0
2.335288620E1,-2.041719913E0,8.068685532E-1,-6.594780684E-1
2.337276949E1,-2.456796646E0,1.333540916E0,-2.464398146E-1
2.339266886E1,-2.160681486E0,1.485436440E0,-3.021190166E-1
2.341255824E1,-1.247006893E0,1.167700768E0,-4.793970585E-1
2.343244605E1,-7.123758793E-1,7.686338425E-1,-5.243126154E-1
2.345234120E1,-7.085680962E-1,6.507358551E-1,-3.413879871E-1
2.347222360E1,-5.489137173E-1,5.450887680E-1,-2.056972980E-1
2.349216272E1,-2.835795879E-1,4.459285736E-1,-3.226543665E-1
2.351200219E1,-1.867818832E-1,5.738563538E-1,-5.921823978E-1
2.353188235E1,-2.608327866E-1,7.751321793E-1,-6.435837746E-1
2.355178511E1,-4.765248299E-1,6.036319733E-1,-4.654740095E-1
2.357166636E1,-7.029218674E-1,2.870082855E-1,-1.683993340E-1
2.359156115E1,-7.357747555E-1,7.875251770E-2,-1.691890955E-1
2.361145022E1,-5.546307564E-1,2.236299515E-1,-4.272289276E-1
2.363136068E1,-2.131059170E-1,4.300394058E-1,-6.425104141E-1
2.365123740E1,2.959461212E-1,4.408559799E-1,-5.595378876E-1
2.367112475E1,4.226629734E-1,3.329553604E-1,-3.192802668E-1
2.369100949E1,2.845621109E-1,2.218341827E-1,-1.461024284E-1
2.371088313E1,2.659301758E-1,1.652555466E-1,-6.147837639E-2
2.373080115E1,4.399914742E-1,1.708965302E-1,2.278559208E-1
2.375070193E1,5.970520973E-1,-1.265811920E-2,4.375300407E-1
2.377057990E1,6.503551006E-1,-3.350934982E-1,5.003684759E-1
2.379048193E1,5.963332653E-1,-3.381719589E-1,6.667226553E-1
2.381036261E1,8.846817017E-1,-4.018440247E-1,7.083222866E-1
2.383028001E1,1.417022705E0,-5.797424316E-1,8.529953957E-1
2.385014548E1,1.674835682E0,-8.002080917E-1,1.007107973E0
2.387003344E1,1.728744268E0,-9.788165092E-1,9.589340687E-1
2.388991329E1,1.830116749E0,-8.274021149E-1,8.251962662E-1
2.390981594E1,2.203486204E0,-9.652256966E-1,7.596776485E-1
2.392974376E1,2.563134670E0,-1.451750278E0,7.935898304E-1
2.394961313E1,2.842980623E0,-2.014281273E0,6.715567112E-1
2.396951048E1,3.117892981E0,-2.350399971E0,3.315014839E-1
2.398939324E1,3.467793941E0,-2.521155357E0,-1.204631329E-1
2.400927074E1,3.746599913E0,-2.742631912E0,-7.067309618E-1
2.402914157E1,3.276237011E0,-3.058775902E0,-9.379751682E-1
2.404902178E1,2.214412928E0,-3.392656326E0,-9.463022947E-1
2.406894350E1,1.305555344E0,-4.029625416E0,-1.157212257E0
2.408881136E1,1.371192932E0,-4.623610497E0,-1.220461369E0
2.410869636E1,1.855762482E0,-5.318948746E0,-1.475622654E0
2.412862787E1,1.665169239E0,-5.380249023E0,-1.750285745E0
2.414852980E1,5.437793732E-1,-4.648114204E0,-5.211840272E-1
2.416837167E1,-4.813070297E-1,-3.734125137E0,1.060446739E0
2.418829120E1,-7.506237030E-1,-2.196309566E0,2.505739927E0
2.420816240E1,-4.138469696E-3,6.877374649E-2,4.743332386E0
2.422804751E1,2.200088501E0,3.224211693E0,7.322050095E0
2.424795475E1,7.435524940E0,6.471056938E0,8.320750237E0
2.426785943E1,1.537988472E1,1.083855152E1,9.094377518E0
2.428773344E1,2.583925247E1,1.805731773E1,9.374844551E0
2.430765209E1,3.307867432E1,2.773232269E1,8.864250183E0
2.432756001E1,2.874871826E1,3.529466248E1,6.119865417E0
2.434743433E1,1.959446716E1,3.617197037E1,-2.335164309E0
2.436731766E1,1.306849289E1,3.008099556E1,-1.681735039E1
2.438721172E1,2.165762711E1,1.231131840E1,-3.659717178E1
2.440706454E1,3.801760864E1,-5.612097740E0,-6.254244614E1
2.442697126E1,4.433452225E1,-2.797020149E1,-7.707139587E1
2.444687850E1,2.466093636E1,-3.706520844E1,-8.168774414E1
2.446677256E1,2.818675041E0,-4.939915848E1,-6.966688538E1
2.448664829E1,3.223943710E-1,-5.995579529E1,-5.350445938E1
2.450659094E1,-6.202810287E0,-6.457978058E1,-3.658873749E1
2.452646761E1,-1.747785759E1,-5.802220535E1,-1.896370316E1
2.454631433E1,-1.723914337E1,-5.342380905E1,-1.083659554E1
2.456623443E1,-1.220488834E1,-5.196036911E1,-3.278637886E0
2.458608907E1,-5.597063065E0,-4.171209717E1,3.539373875E0
2.460599693E1,-5.619196892E-1,-3.318775177E1,6.660938263E0
2.462587287E1,3.799180984E0,-2.474656868E1,4.743860722E0
2.464577980E1,6.676344872E0,-1.962926674E1,1.744569778E0
2.466567495E1,1.017878342E1,-1.655026627E1,2.393182039E0
2.468559225E1,1.207825565E1,-1.009039211E1,5.021569252E0
2.470546756E1,9.241046906E0,-5.307428837E0,5.370631695E0
2.472533475E1,6.892799377E0,-4.145480156E0,2.954092264E0
2.474523907E1,6.259419441E0,-2.878895760E0,1.669759512E0
2.476511579E1,3.990137577E0,-1.074064255E0,2.190430403E0
2.478500876E1,-9.600157738E-1,1.402780533E0,2.091368437E0
2.480489032E1,-1.125277996E0,1.084681034E0,4.462747574E-1
2.482479480E1,1.154647350E0,1.745697021E0,-8.064384460E-1
2.484467902E1,7.921862602E-1,2.331387520E0,-1.708861470E0
2.486456876E1,1.504006386E-1,2.790351868E0,-2.741631985E0
2.488448652E1,4.467406273E-1,3.852675438E0,-3.184166431E0
2.490434251E1,6.591634750E-1,4.019983292E0,-2.533070564E0
2.492424485E1,4.100084305E-1,3.435542583E0,-1.485167027E0
2.494413365E1,-3.960847855E-2,2.696234703E0,-1.651251316E0
2.496401459E1,-1.662230492E-1,2.572646141E0,-3.346974850E0
2.498391219E1,-6.204168797E-1,2.227772713E0,-3.764424562E0
2.500380235E1,-1.223284006E0,1.809814453E0,-2.775325537E0
2.502372548E1,-1.124814510E0,1.407984734E0,-1.545807362E0
2.504363115E1,-1.393874884E0,1.034539223E0,-1.367514849E0
2.506352449E1,-2.184938908E0,9.508991241E-1,-2.096186161E0
2.508338282E1,-2.934331179E0,1.266613007E0,-3.020119190E0
2.510329360E1,-2.765823364E0,1.144929886E0,-2.673703671E0
2.512315079E1,-2.701302052E0,7.339572906E-1,-1.071773767E0
2.514308152E1,-3.196292877E0,5.301141739E-1,-5.930635929E-1
2.516295891E1,-3.437357664E0,5.518970490E-1,-1.266247511E0
2.518283995E1,-3.583867788E0,5.181550980E-1,-1.718139172E0
2.520273985E1,-3.477274418E0,4.745817184E-1,-1.400176048E0
2.522260933E1,-3.285854816E0,6.577215195E-1,-9.069451094E-1
2.524252485E1,-3.252668381E0,1.434217453E0,-1.389304996E0
2.526241672E1,-2.815138817E0,1.300508499E0,-2.099734068E0
2.528227647E1,-2.462394714E0,1.246939659E0,-1.730293751E0
2.530218459E1,-2.145372391E0,1.550377846E0,-1.139057398E0
2.532207240E1,-2.133528471E0,1.662066460E0,-1.207089186E0
2.534195964E1,-1.911798716E0,1.374779701E0,-1.226294041E0
2.536183756E1,-1.869967461E0,1.211270332E0,-8.203293085E-1
2.538175714E1,-1.659028649E0,1.087159157E0,-7.574464083E-1
2.540163001E1,-9.373700619E-1,1.416918755E0,-1.214627862E0
2.542154808E1,-3.596487045E-1,1.584166527E0,-1.397543192E0
2.544144303E1,-4.292054176E-1,1.234498024E0,-9.916166663E-1
2.546129933E1,-6.069715023E-1,1.057839394E0,-5.306514502E-1
2.548121058E1,-5.963683128E-1,1.392804146E0,-7.288662195E-1
2.550108949E1,-3.876318932E-1,1.388863564E0,-1.155931234E0
2.552098725E1,-1.352725029E-1,1.048446655E0,-1.082645893E0
2.554085605E1,1.278717518E-1,6.912755966E-1,-7.880038023E-1
2.556078048E1,1.067352295E-1,5.736360550E-1,-7.749220133E-1
2.558065209E1,1.758947372E-1,5.468826294E-1,-7.798285484E-1
2.560054230E1,4.297130108E-1,2.987136841E-1,-7.936763763E-1
2.562043860E1,5.906519890E-1,-1.430234909E-1,-6.954494715E-1
2.564031240E1,5.292339325E-1,-5.523414612E-1,-5.012600422E-1
2.566023240E1,4.737691879E-1,-5.835428238E-1,-2.238321304E-1
2.568010662E1,7.582786083E-1,-3.526544571E-1,-4.300045967E-2
2.569999386E1,1.207809687E0,-3.075132370E-1,3.754401207E-2
2.571987152E1,1.522824764E0,-5.902204514E-1,1.543898582E-1
2.573978100E1,1.543919086E0,-7.159843445E-1,2.024211884E-1
2.575969829E1,1.488700867E0,-6.333847046E-1,2.676956654E-1
2.577959495E1,1.506958485E0,-6.469421387E-1,5.427901745E-1
2.579945386E1,1.314863443E0,-7.809343338E-1,7.311010361E-1
2.581934693E1,1.169733047E0,-7.159347534E-1,6.178319454E-1
2.583924949E1,1.334430218E0,-4.291849136E-1,3.275039196E-1
2.585913537E1,1.300915241E0,-4.798460007E-1,1.778981686E-1
2.587901537E1,9.410858154E-1,-7.905440331E-1,4.367053509E-1
2.589890589E1,8.107044697E-1,-1.075376987E0,5.053176880E-1
2.591880282E1,8.979167938E-1,-1.023311138E0,2.548491955E-1
2.593869714E1,9.682905674E-1,-7.885012627E-1,4.402804375E-2
2.595856605E1,9.695329666E-1,-7.956113815E-1,1.666045189E-1
2.597849990E1,9.828436375E-1,-1.125345707E0,4.946074486E-1
2.599836115E1,1.086122751E0,-1.282385349E0,7.480115891E-1
2.601826985E1,1.140249729E0,-1.000351906E0,8.152687550E-1
2.603815068E1,1.311437845E0,-9.606947899E-1,9.313938618E-1
2.605803329E1,1.625963926E0,-1.227449894E0,1.174233198E0
2.607790553E1,1.878036976E0,-1.459351540E0,1.172638416E0
2.609782287E1,2.147381544E0,-1.516932964E0,8.800082207E-1
2.611771558E1,2.371022463E0,-1.677403927E0,6.032564640E-1
2.613759459E1,3.021030664E0,-2.424497128E0,2.422962189E-1
2.615748641E1,4.263883114E0,-3.296226978E0,-2.854096889E-1
2.617737245E1,4.988479614E0,-3.671223640E0,-8.016319275E-1
2.619726157E1,4.575019360E0,-3.768188477E0,-1.238643885E0
2.621717798E1,4.080351830E0,-4.143853188E0,-1.868679166E0
2.623705157E1,3.884690523E0,-4.163766861E0,-1.967040300E0
2.625692844E1,3.614522934E0,-3.805880547E0,-1.469037414E0
2.627681428E1,3.589884758E0,-3.297637939E0,-1.063052177E0
2.629674016E1,3.043460846E0,-2.827895164E0,-2.010785103E0
2.631659365E1,1.506260395E0,-2.914195538E0,-1.783026218E0
2.633653006E1,-2.965164185E-1,-2.712254047E0,-1.026226282E-1
2.635640152E1,-6.447019577E-1,-1.963280678E0,1.656540394E0
2.637630902E1,6.104130745E-1,-7.326688766E-1,2.108363867E0
2.639619277E1,2.385135174E0,1.833774090E0,2.477113247E0
2.641606657E1,4.462285042E0,5.828372478E0,3.103102684E0
2.643596277E1,8.120210648E0,1.167019558E1,5.332962990E0
2.645586725E1,1.465136909E1,1.791724968E1,7.812221527E0
2.647575954E1,2.193104744E1,2.546416092E1,8.236232758E0
2.649564745E1,2.065908241E1,3.778104401E1,5.297457695E0
2.651554891E1,8.906390190E0,4.850628662E1,-4.493680477E0
2.653540459E1,3.684468269E0,3.612733459E1,-2.492623329E1
2.655530745E1,2.151666260E1,1.474861622E1,-5.677623367E1
2.657519990E1,3.862833405E1,2.143713951E0,-8.027782440E1
2.659511506E1,3.128015900E1,-5.546024799E0,-7.706383514E1
2.661498396E1,1.558097172E1,-1.311389923E1,-7.815128326E1
2.663488693E1,1.096425915E1,-3.122992897E1,-7.956027222E1
2.665474657E1,1.378561115E1,-5.837288666E1,-6.776293182E1
2.667467131E1,7.092281342E0,-7.453794098E1,-4.994713974E1
2.669452865E1,-5.597685814E0,-6.483968353E1,-3.133865356E1
2.671444808E1,-1.753813553E1,-6.226388931E1,-1.818706131E1
2.673434902E1,-1.279864311E1,-4.854911804E1,-7.191369057E0
2.675421094E1,-1.743252754E0,-3.658826447E1,-6.936912537E-1
2.677409735E1,6.762502193E0,-3.037355042E1,2.589920044E0
2.679399995E1,8.508117676E0,-2.214035988E1,3.811810970E0
2.681389954E1,7.543995380E0,-1.595545006E1,3.007309914E0
2.683377855E1,6.370508194E0,-1.101992512E1,2.680857658E0
2.685367985E1,6.123418808E0,-6.082136154E0,4.417693138E0
2.687359949E1,6.658682823E0,-2.155193090E0,4.975886345E0
2.689348329E1,6.243787766E0,-9.271421432E-1,2.794538021E0
2.691333376E1,4.067137718E0,-1.418860197E0,9.779624939E-1
2.693323756E1,1.405553818E0,-1.050367355E0,1.362112522E0
2.695312042E1,1.144763470E0,5.378327370E-1,1.436198711E0
2.697304256E1,2.744497299E0,1.073888779E0,-1.623229980E-1
2.699289938E1,3.122309208E0,9.874653816E-1,-1.878394485E0
2.701280324E1,2.039358139E0,1.430271626E0,-2.480373144E0
2.703267563E1,6.787295341E-1,2.905442238E0,-2.941331863E0
2.705258631E1,-2.294058800E-1,3.165023804E0,-3.222580910E0
2.707249693E1,-5.088667870E-1,2.613363266E0,-2.907416344E0
2.709241407E1,-7.815086842E-1,2.098479271E0,-3.051007986E0
2.711226709E1,-1.381489277E0,2.359157562E0,-3.087155342E0
2.713216610E1,-2.082911491E0,2.055732727E0,-2.833316565E0
2.715207522E1,-2.462914705E0,1.993415833E0,-2.304745913E0
2.717193897E1,-1.738116980E0,2.003567696E0,-1.544933558E0
2.719182787E1,-1.438194036E0,1.539036751E0,-1.507521749E0
2.721169959E1,-1.835858703E0,1.368473053E0,-1.762782574E0
2.723159745E1,-2.504994154E0,1.717938423E0,-1.441409111E0
2.725149641E1,-2.590705156E0,1.803992271E0,-1.052871108E0
2.727138657E1,-2.031826258E0,1.632963181E0,-8.652594090E-1
2.729128074E1,-2.070147753E0,1.271418571E0,-1.048297405E0
2.731116428E1,-2.594861984E0,1.039488792E0,-1.104094625E0
2.733104256E1,-3.048789978E0,1.191681862E0,-8.774133921E-1
2.735095740E1,-2.920879364E0,1.168700218E0,-2.716733813E-1
2.737085016E1,-2.645247221E0,7.625837326E-1,5.216121674E-2
2.739072423E1,-2.581876278E0,7.822999954E-1,-4.532694817E-2
2.741060803E1,-2.699627161E0,1.110996246E0,-4.140976071E-1
2.743053501E1,-2.599223375E0,9.653434753E-1,-7.943373919E-1
2.745040850E1,-2.134096146E0,9.971809387E-1,-8.251500726E-1
2.747028199E1,-1.740468979E0,1.305514336E0,-1.095234632E0
2.749020527E1,-1.632687330E0,1.334211349E0,-1.244804382E0
2.751009798E1,-1.649615407E0,8.210334778E-1,-9.454626441E-1
2.752996001E1,-1.729939580E0,4.937477112E-1,-3.666310310E-1
2.754985798E1,-1.718789577E0,7.229003906E-1,-3.745189905E-1
2.756975376E1,-1.262274742E0,9.429712296E-1,-8.291735649E-1
2.758966605E1,-6.387887001E-1,7.622098923E-1,-7.937680483E-1
2.760959022E1,-2.673556805E-1,6.471786499E-1,-2.064821720E-1
2.762943485E1,2.292132378E-2,6.021852493E-1,1.248700619E-1
2.764933433E1,9.250974655E-2,4.554414749E-1,1.477646828E-2
2.766922933E1,4.092285633E-1,1.794948578E-1,2.274019718E-1
2.768911469E1,1.142505646E0,-4.464626312E-2,5.737217665E-1
2.770898865E1,1.463830233E0,-8.294487000E-2,4.480286837E-1
2.772889516E1,1.243691683E0,-2.259492874E-1,3.995105028E-1
2.774876219E1,9.179456234E-1,-5.441341400E-1,5.474530458E-1
2.776864397E1,9.864499569E-1,-8.496665955E-1,6.225876808E-1
2.778858938E1,1.171246767E0,-6.647768021E-1,5.306059122E-1
2.780843277E1,1.251282454E0,-5.695562363E-1,3.714753389E-1
2.782834975E1,1.266343117E0,-7.553987503E-1,3.657897711E-1
2.784826157E1,1.336457491E0,-9.699916840E-1,4.987764359E-1
2.786810063E1,1.580851793E0,-1.015065193E0,4.052360058E-1
2.788802683E1,1.913163900E0,-9.556384087E-1,3.899371624E-1
2.790789079E1,2.124230862E0,-1.111262798E0,5.865845680E-1
2.792780183E1,2.127649307E0,-1.308542252E0,6.661096811E-1
2.794770922E1,2.184393883E0,-1.347021103E0,5.692552328E-1
2.796758766E1,2.212996244E0,-1.188537598E0,4.819389582E-1
2.798747204E1,2.181165218E0,-1.097708702E0,3.648419380E-1
2.800734839E1,2.207483292E0,-1.148908615E0,3.200360537E-1
2.802723188E1,2.223845005E0,-1.005849361E0,-1.691842079E-2
2.804711334E1,2.047038078E0,-6.922035217E-1,-5.359728336E-1
2.806703110E1,1.718409300E0,-5.502347946E-1,-8.944981694E-1
2.808691490E1,1.327012539E0,-7.130589485E-1,-8.897690177E-1
2.810678704E1,1.054729462E0,-5.753297806E-1,-7.440559864E-1
2.812668391E1,8.697161674E-1,-3.701887131E-1,-9.413354397E-1
2.814658537E1,6.437063217E-1,-9.057044983E-2,-1.024759412E0
2.816648787E1,2.814326286E-1,-1.110601425E-1,-1.062824368E0
2.818636131E1,1.374764442E-1,-1.202869415E-2,-8.342576027E-1
2.820626141E1,6.248331070E-2,8.099079132E-2,-5.893584490E-1
2.822615360E1,-6.303033829E-1,-2.946252823E-1,4.511713982E-2
2.824602157E1,-1.499205351E0,-7.964096069E-1,9.545464516E-1
2.826592745E1,-2.146975756E0,-1.099029541E0,1.424710631E0
2.828581147E1,-3.088886976E0,-8.932151794E-1,2.067441940E0
2.830570219E1,-3.794816017E0,2.599153519E-1,3.044516802E0
2.832562907E1,-3.942711592E0,2.227663517E0,5.073369026E0
2.834553475E1,-3.241582155E0,4.628914356E0,7.830181122E0
2.836538714E1,-2.168774128E0,7.165698051E0,1.010465336E1
2.838526818E1,1.589975357E-1,1.046637726E1,1.104277325E1
2.840517412E1,4.788130760E0,1.436234283E1,1.080550480E1
2.842505756E1,1.045238209E1,2.135212708E1,9.846985817E0
2.844494834E1,1.229594707E1,3.091238022E1,7.430095196E0
2.846483032E1,4.994466782E0,4.197898865E1,3.040952682E0
2.848472527E1,-3.846123695E0,5.062784195E1,-7.396439552E0
2.850465511E1,3.460448265E0,3.692369461E1,-3.810640717E1
2.852454558E1,2.934885025E1,1.175109673E1,-7.911148834E1
2.854442870E1,3.517942429E1,-6.633408546E0,-7.306382751E1
2.856429282E1,2.947920990E1,-8.989644051E0,-7.497767639E1
2.858418636E1,2.620628357E1,-2.861064720E1,-8.143428802E1
2.860410235E1,2.621836853E1,-5.333681870E1,-7.416848755E1
2.862397662E1,2.136373329E1,-7.200966644E1,-5.728762054E1
2.864385136E1,8.026224136E0,-7.927110291E1,-3.542517090E1
2.866376850E1,-2.741714478E0,-7.485974121E1,-1.792679214E1
2.868368006E1,-1.365707016E1,-6.479481506E1,-6.299733162E0
2.870357412E1,-1.355610847E1,-4.349473572E1,2.664655685E0
2.872343740E1,-4.590983868E0,-3.093345261E1,7.005546093E0
2.874332902E1,3.861107826E0,-2.240975571E1,6.555945873E0
2.876323568E1,7.022517681E0,-1.597434616E1,2.505857944E0
2.878308761E1,7.000222683E0,-1.047015095E1,1.439114094E0
2.880299714E1,5.833771229E0,-4.897902012E0,3.973807335E0
2.882287928E1,4.016127110E0,-2.599368095E-1,5.126929760E0
2.884276803E1,3.457501411E0,1.062128544E0,2.749388218E0
2.886267641E1,4.933887959E0,5.214128494E-1,-1.463174820E0
2.888258068E1,3.862199306E0,-1.300306320E-1,-2.658223391E0
2.890245636E1,2.508554459E-1,1.852260590E0,-1.255406857E0
2.892234699E1,-1.505425930E0,3.484252453E0,-1.535238266E0
2.894224620E1,-6.947836876E-1,2.715350151E0,-2.950971842E0
2.896210365E1,8.427906036E-2,2.054705143E0,-3.192854881E0
2.898199381E1,-7.925829887E-1,1.884116173E0,-2.975865364E0
2.900192318E1,-1.741752863E0,2.277151108E0,-3.334252119E0
2.902180495E1,-2.004911184E0,2.125539780E0,-2.487329960E0
2.904169652E1,-1.905701995E0,1.640748024E0,-1.389135122E0
2.906158855E1,-1.759557009E0,2.727032661E0,-2.283651352E0
2.908148068E1,-1.386679411E0,2.680962563E0,-3.796212673E0
2.910135522E1,-1.591038823E0,1.719169617E0,-2.864815474E0
2.912126860E1,-1.794199705E0,1.539926529E0,-1.289784431E0
2.914113199E1,-1.379842281E0,2.088255882E0,-1.326028943E0
2.916103673E1,-1.338902473E0,2.498783112E0,-2.527489662E0
2.918092673E1,-1.338212729E0,2.013896942E0,-2.742595673E0
2.920081428E1,-1.624258161E0,1.796907425E0,-1.320488334E0
2.922068740E1,-1.975949645E0,2.333440781E0,-6.120148897E-1
2.924057699E1,-2.338769436E0,2.446700096E0,-9.997493029E-1
2.926051459E1,-2.455661774E0,1.879858971E0,-1.691384196E0
2.928036053E1,-2.315810919E0,1.792780876E0,-1.654202104E0
2.930027360E1,-2.301450253E0,2.163226128E0,-1.038667679E0
2.932014147E1,-2.673373222E0,2.154797554E0,-8.153361082E-1
2.934005631E1,-2.937802315E0,1.520008087E0,-1.066345096E0
2.935995152E1,-2.900161743E0,1.477197647E0,-1.282012582E0
2.937982391E1,-2.369779110E0,2.111351013E0,-1.428208113E0
2.939974532E1,-1.933375716E0,2.048368454E0,-1.220839500E0
2.941963329E1,-1.922376156E0,1.587001801E0,-1.012387276E0
2.943957251E1,-1.997660875E0,1.298582077E0,-9.912734032E-1
2.945939272E1,-1.970864177E0,1.396299362E0,-9.949514866E-1
2.947927292E1,-1.430932879E0,1.192843437E0,-8.769410849E-1
2.949916188E1,-7.379760742E-1,7.510051727E-1,-8.936234713E-1
2.951907818E1,-1.966233253E-1,5.036487579E-1,-8.224377632E-1
2.953896870E1,1.004259586E-1,6.616544724E-1,-7.304213047E-1
2.955886923E1,1.464862823E-1,7.505111694E-1,-7.187378407E-1
2.957875370E1,3.908007145E-1,5.381565094E-1,-5.275809765E-1
2.959864193E1,5.432484150E-1,2.728319168E-1,-3.853155375E-1
2.961852376E1,6.605238914E-1,3.630418777E-1,-4.400628805E-1
2.963841782E1,7.548782825E-1,3.729047775E-1,-5.290009975E-1
2.965829157E1,6.988217831E-1,9.664726257E-2,-2.981224060E-1
2.967819605E1,7.188706398E-1,-3.469133377E-1,-9.894132614E-3
2.969809548E1,8.563842773E-1,-6.258516312E-1,4.111545086E-1
2.971798485E1,1.239684582E0,-7.791996002E-1,4.706757069E-1
2.973787303E1,1.374554157E0,-6.634263992E-1,3.729891777E-1
2.975775943E1,1.461437225E0,-8.474788666E-1,5.461192131E-1
2.977767626E1,1.988543034E0,-1.270612717E0,8.270976543E-1
2.979759714E1,2.318436861E0,-1.459815025E0,8.922822475E-1
2.981743469E1,2.012400389E0,-1.250972271E0,7.825009823E-1
2.983734339E1,1.838455439E0,-1.294279575E0,6.568133831E-1
2.985721917E1,1.976354837E0,-1.439325809E0,8.356451988E-1
2.987711225E1,2.097442865E0,-1.399831295E0,9.903788567E-1
2.989701110E1,2.145841599E0,-1.310429096E0,1.032270670E0
2.991689298E1,2.486395836E0,-1.281733513E0,9.764056206E-1
2.993679105E1,2.752069712E0,-1.261238098E0,8.236365318E-1
2.995666120E1,2.369642973E0,-1.057826519E0,6.846101284E-1
2.997656428E1,1.717020273E0,-7.430591583E-1,5.595529079E-1
2.999645438E1,1.537971735E0,-8.743157387E-1,3.718748093E-1
3.001631532E1,1.827103376E0,-1.167592525E0,3.627152443E-1
3.003623204E1,2.255697727E0,-1.200218678E0,3.800766468E-1
3.005613662E1,2.295240641E0,-9.948816299E-1,3.252820969E-1
3.007603646E1,2.474376678E0,-7.927575111E-1,1.287214756E-1
3.009589287E1,3.172390223E0,-9.079608917E-1,-4.478664398E-1
3.011579516E1,3.869723320E0,-1.231239319E0,-1.076184273E0
3.013569652E1,3.928520203E0,-1.237555027E0,-1.805888891E0
3.015561490E1,3.505041599E0,-1.190004826E0,-2.734460831E0
3.017550813E1,2.826261520E0,-1.123131752E0,-3.319249392E0
3.019536495E1,1.755222321E0,-1.392764091E0,-3.366979122E0
3.021525022E1,-5.184121132E-1,-1.525321007E0,-3.466578484E0
3.023514865E1,-2.646567822E0,-1.100401878E0,-3.316197634E0
3.025504579E1,-4.431559086E0,1.218500137E-1,-1.875312328E0
3.027491449E1,-5.349468231E0,9.563870430E-1,5.921342373E-1
3.029480574E1,-5.674439430E0,5.712847710E-1,3.459454536E0
3.031469495E1,-6.461050034E0,3.072341442E0,6.362021446E0
3.033460230E1,-6.008488655E0,9.504690170E0,9.224350929E0
3.035450495E1,-2.839773655E0,1.561573029E1,1.229687691E1
3.037435563E1,4.540130615E0,2.287729454E1,1.419101048E1
3.039428277E1,1.478804016E1,3.273373032E1,1.630162811E1
3.041418188E1,2.159047699E1,4.143458939E1,1.422135448E1
3.043405688E1,2.219495201E1,4.846768570E1,7.553192139E0
3.045394022E1,1.506001663E1,5.098217392E1,-4.830332756E0
3.047385766E1,5.500591278E0,4.579676819E1,-3.349907303E1
3.049374553E1,6.777522087E0,2.533309364E1,-7.826016998E1
3.051362881E1,1.286224079E1,5.184484005E0,-7.952258301E1
3.053353589E1,2.433720016E1,-9.885733128E-1,-7.912960815E1
3.055341511E1,1.819413757E1,-3.359259415E1,-8.049656677E1
3.057327225E1,-2.151169777E0,-6.581967926E1,-7.907595062E1
3.059321027E1,-9.076403618E0,-6.294318390E1,-5.738691711E1
3.061305574E1,-5.478436947E0,-6.127189636E1,-3.631088638E1
3.063294990E1,-5.726511002E0,-5.822875977E1,-2.194180107E1
3.065285407E1,-4.278295040E0,-4.649879074E1,-1.025800705E1
3.067275943E1,4.214304924E0,-3.897126007E1,-4.017876625E0
3.069264558E1,7.568845749E0,-3.029267120E1,-3.888099194E-1
3.071252610E1,7.154677391E0,-2.141778374E1,3.045127392E-1
3.073240688E1,7.767359734E0,-1.492114925E1,4.313230515E-3
3.075231256E1,7.511035919E0,-1.091684341E1,1.201177835E0
3.077219792E1,6.585801125E0,-7.065940857E0,2.512623787E0
3.079208475E1,5.209626198E0,-3.761651039E0,2.021086931E0
3.081198230E1,4.489374161E0,-2.162079573E0,2.919654846E-1
3.083186907E1,4.049226284E0,-1.617407560E0,-1.782920361E-1
3.085175344E1,3.349818707E0,-1.188517094E0,-1.114544868E-1
3.087166006E1,2.300464630E0,1.454257965E-2,-8.641216755E-1
3.089154303E1,1.964166641E0,1.172566414E-1,-2.339470387E0
3.091143370E1,1.328197002E0,2.345442772E-1,-3.494657040E0
3.093133188E1,2.045474052E-1,9.542098045E-1,-4.235033512E0
3.095122808E1,-4.189405441E-1,1.709408283E0,-4.642461777E0
3.097110230E1,2.736582756E-1,2.426537514E0,-4.946950912E0
3.099101308E1,9.902358055E-1,3.170728207E0,-4.321323395E0
3.101089480E1,4.828753471E-1,3.285674095E0,-4.085362911E0
3.103078386E1,1.001858711E-1,2.151152611E0,-4.795376778E0
3.105066094E1,5.889139175E-1,2.346710205E0,-4.800223827E0
3.107055209E1,8.251638412E-1,3.054953575E0,-4.732576847E0
3.109045756E1,5.039181709E-1,2.974161148E0,-5.263670921E0
3.111035193E1,-6.546752453E-1,2.709070206E0,-5.274612427E0
3.113023792E1,-1.570877552E0,2.630267143E0,-4.463242531E0
3.115014350E1,-1.449507475E0,2.563020706E0,-3.932412386E0
3.117002657E1,-1.290986300E0,2.308116913E0,-4.264114380E0
3.118990443E1,-1.753653526E0,1.445842743E0,-4.331241131E0
3.120979709E1,-2.634826183E0,1.283754349E0,-3.338902473E0
3.122972969E1,-3.177658558E0,1.803005219E0,-2.110561848E0
3.124962219E1,-3.643605709E0,1.906593323E0,-1.657538414E0
3.126950548E1,-2.943286657E0,2.056541443E0,-1.891867280E0
3.128935058E1,-2.634512901E0,2.699392319E0,-2.360097408E0
3.130927016E1,-2.789298773E0,2.172425270E0,-2.269193649E0
3.132914219E1,-2.963108540E0,1.539507866E0,-1.762804031E0
3.134905537E1,-3.261829615E0,1.271348000E0,-1.769535065E0
3.136893792E1,-3.015009880E0,1.137454033E0,-2.431621552E0
3.138880344E1,-2.493025541E0,8.298034668E-1,-2.994649887E0
3.140869787E1,-1.674794674E0,1.020465851E0,-3.301239014E0
3.142858511E1,-1.007551908E0,1.088515282E0,-3.074100494E0
3.144853761E1,-4.515681267E-1,6.011238098E-1,-2.814738989E0
3.146837855E1,-2.831561565E-1,3.864526749E-1,-2.676294327E0
3.148826178E1,-3.709192276E-1,8.349657059E-1,-2.375527382E0
3.150817600E1,-2.643272877E-1,8.704824448E-1,-2.149025679E0
3.152804647E1,-2.057220936E-1,6.947393417E-1,-1.863742709E0
3.154793730E1,6.310415268E-2,5.992565155E-1,-1.137577534E0
3.156783048E1,2.147436142E-2,8.600454330E-1,-4.346714020E-1
3.158774172E1,-1.159272194E-1,1.171627998E0,-5.126476288E-3
3.160764126E1,-1.743650436E-2,9.689159393E-1,5.135650635E-1
3.162756730E1,2.384831905E-1,3.278446198E-1,6.618421078E-1
3.164741016E1,1.065054178E0,-1.708593369E-1,4.611368179E-1
3.166731245E1,2.166997910E0,-1.747560501E-1,1.823849678E-1
3.168717933E1,2.723261595E0,-5.305585861E-1,1.836574078E-1
3.170709464E1,2.170233727E0,-1.115736008E0,6.263127327E-1
3.172695943E1,7.050814629E-1,-9.311323166E-1,7.294886112E-1
3.174684120E1,-2.700920105E-1,-2.960205078E-1,1.981635094E-1
3.176673943E1,-3.251953125E-1,-2.660360336E-1,-3.315122128E-1
3.178665610E1,7.136464119E-2,-3.462657928E-1,-6.016302109E-1
3.180658626E1,3.914983273E-1,-1.312875748E-1,-6.074175835E-1
3.182648464E1,3.021922112E-1,3.079910278E-1,-4.447934628E-1
3.184632136E1,-2.122650146E-1,6.248302460E-1,-2.188310623E-1
3.186619277E1,-6.220235825E-1,5.504121780E-1,8.238840103E-2
3.188611058E1,-5.486218929E-1,2.004661560E-1,3.951671124E-1
3.190599422E1,-5.243475437E-1,2.564334869E-2,4.113550186E-1
3.192585917E1,-4.294149876E-1,1.337671280E-1,2.521457672E-1
3.194577219E1,1.613280773E-1,6.588077545E-2,5.311200619E-1
3.196568350E1,1.021756887E0,-5.623388290E-1,8.234515190E-1
3.198559219E1,1.756966114E0,-1.469059467E0,8.861534595E-1
3.200545100E1,2.746703863E0,-2.307240009E0,8.946366310E-1
3.202532917E1,4.138882637E0,-2.757472515E0,9.205596447E-1
3.204521396E1,5.425788403E0,-2.931406498E0,1.104598045E0
3.206511626E1,5.908806801E0,-3.356392860E0,1.074712276E0
3.208500006E1,5.428222179E0,-3.621823788E0,5.780327320E-1
3.210487594E1,5.046593189E0,-3.501482964E0,-1.505773067E-1
3.212475584E1,4.934113503E0,-3.070869446E0,-1.212831736E0
3.214468006E1,4.778264046E0,-3.027217865E0,-2.292358875E0
3.216454318E1,3.417025328E0,-3.325356960E0,-2.564801216E0
3.218443860E1,8.414413929E-1,-3.090850353E0,-1.799699664E0
3.220433344E1,-2.511260033E0,-2.798511028E0,-8.674352169E-1
3.222421360E1,-4.927767754E0,-4.081082344E0,-1.444883823E0
3.224410589E1,-5.651822567E0,-6.481248379E0,-1.441896439E0
3.226400396E1,-5.733647346E0,-7.993932724E0,-5.448623896E-1
3.228390422E1,-4.520402908E0,-8.916858673E0,1.552331924E0
3.230381141E1,-2.266305923E0,-8.030693054E0,3.748388290E0
3.232367245E1,4.026594162E-1,-3.919631004E0,4.534861088E0
3.234362454E1,4.909760475E0,1.383975267E0,3.821022987E0
3.236354579E1,1.226911640E1,7.737108231E0,2.056837559E0
3.238335391E1,2.140198517E1,1.698741341E1,-1.252563953E0
3.240327006E1,2.870558548E1,2.773321915E1,-7.009418011E0
3.242316006E1,3.152271271E1,3.883627319E1,-1.200387383E1
3.244305881E1,3.076375198E1,4.586936569E1,-1.968760109E1
3.246292938E1,2.508019257E1,3.917877960E1,-4.462311172E1
3.248283173E1,2.073172760E1,2.106444931E1,-7.813461304E1
3.250273214E1,1.644107056E1,7.671812057E0,-7.883103943E1
3.252261829E1,1.743051147E1,-1.936072111E0,-7.826902771E1
3.254251839E1,1.159781361E1,-2.328846550E1,-7.918164825E1
3.256236964E1,8.536649704E0,-5.053059387E1,-7.953890991E1
3.258226464E1,6.246023178E-1,-7.765609741E1,-6.954457092E1
3.260218516E1,-7.834039688E0,-6.958835602E1,-4.803627777E1
3.262207350E1,-5.779078484E0,-5.683972168E1,-3.102411079E1
3.264193475E1,-1.545185566E0,-5.421778870E1,-2.207206154E1
3.266185745E1,4.455105782E0,-4.765878677E1,-1.200337029E1
3.268173605E1,9.672505379E0,-4.172858047E1,-3.613153696E0
3.270162834E1,9.626503944E0,-3.446556473E1,2.016481876E0
3.272154245E1,7.637833118E0,-2.525125885E1,3.348145008E0
3.274143787E1,7.307932377E0,-1.891315269E1,2.309271812E0
3.276129339E1,1.834039211E0,-1.684182739E1,5.759662628E0
3.278119610E1,-3.010195494E0,-1.297335529E1,1.297296906E1
3.280107990E1,4.075594902E0,-4.105392933E0,8.179497719E0
3.282095313E1,1.067794609E1,-4.271895409E0,-3.937733173E-1
3.284084157E1,1.131298351E1,-3.751748562E0,-4.983600616E0
3.286075558E1,7.694703102E0,-9.303421974E-1,-4.089577675E0
3.288061855E1,4.109899998E0,1.946396351E0,-2.538892269E0
3.290054652E1,2.282344818E0,2.931229591E0,-2.904505253E0
3.292043798E1,1.924346924E0,1.899734974E0,-3.532463789E0
3.294030480E1,7.088689804E-1,1.718075275E0,-3.255162001E0
3.296022110E1,1.035432816E-1,2.720632553E0,-3.512136221E0
3.298010350E1,2.385544777E-1,3.509078503E0,-4.216539383E0
3.299998376E1,2.068807602E0,3.261624336E0,-4.512039661E0
3.301986324E1,3.208476067E0,3.233899117E0,-3.916005850E0
3.303979053E1,2.292226315E0,3.300796986E0,-4.014138699E0
3.305969834E1,8.514742851E-1,3.769351959E0,-5.673687935E0
3.307960959E1,-6.672711372E-1,3.471478462E0,-6.223948479E0
3.309944928E1,-1.396538496E0,3.411993980E0,-4.867083549E0
3.311932006E1,-1.940958738E0,3.263835907E0,-3.655485153E0
3.313922292E1,-2.116383314E0,2.590169907E0,-3.844516277E0
3.315909079E1,-2.205668926E0,1.922104836E0,-4.202979565E0
3.317901308E1,-2.032506943E0,1.680304527E0,-3.736457348E0
3.319890568E1,-1.908316255E0,1.333862305E0,-3.591109753E0
3.321879704E1,-2.144274712E0,1.722335815E0,-3.467714071E0
3.323867209E1,-3.053923845E0,2.111589432E0,-3.533127069E0
3.325857495E1,-3.769807577E0,1.744747162E0,-3.572547913E0
3.327848558E1,-3.868780375E0,1.617134094E0,-2.904609919E0
3.329833272E1,-3.524642944E0,1.675443649E0,-2.622391224E0
3.331825225E1,-3.052502394E0,1.778066635E0,-2.715764999E0
3.333812662E1,-2.781723022E0,1.620448112E0,-2.413872004E0
3.335802324E1,-3.054880619E0,1.092074394E0,-1.692011595E0
3.337790053E1,-3.316696167E0,1.022181511E0,-1.407993674E0
3.339780975E1,-3.313784122E0,1.541102409E0,-1.646371007E0
3.341770048E1,-2.751757383E0,1.832412720E0,-1.849214673E0
3.343761115E1,-2.164572477E0,1.728909492E0,-1.849363327E0
3.345749495E1,-1.858779430E0,1.626022339E0,-1.789343953E0
3.347738172E1,-1.381452084E0,1.832743645E0,-1.961324930E0
3.349726605E1,-6.678097248E-1,1.761271477E0,-1.975004315E0
3.351713147E1,-2.506380081E-1,1.412365913E0,-1.827233672E0
3.353704355E1,-1.902065277E-1,1.000989914E0,-1.528790832E0
3.355694829E1,-2.563476562E-2,8.078899384E-1,-1.269935727E0
3.357684381E1,1.060495377E-1,6.927642822E-1,-9.751594067E-1
3.359672022E1,1.557195187E-1,3.046398163E-1,-7.519910336E-1
3.361662693E1,3.515267372E-1,1.855726242E-1,-7.742784023E-1
3.363656146E1,5.946400166E-1,2.483186722E-1,-1.170950413E0
3.365638949E1,9.539761543E-1,1.218519211E-1,-1.125266552E0
3.367626219E1,1.285115957E0,6.763744354E-2,-8.923842907E-1
3.369616324E1,1.366935492E0,4.386062622E-1,-1.019029617E0
3.371605527E1,1.003120899E0,3.461036682E-1,-9.440512657E-1
3.373596162E1,6.098625660E-1,-6.114006042E-3,-5.597729683E-1
3.375583313E1,6.274447441E-1,-3.407516479E-1,-4.834568501E-1
3.377574673E1,8.942914009E-1,-3.506336212E-1,-5.964028835E-1
3.379564506E1,9.686038494E-1,-1.860351562E-1,-4.241623878E-1
3.381555522E1,8.139894009E-1,-2.360954285E-1,-2.141346931E-1
3.383539813E1,8.717267513E-1,-5.575084686E-1,-1.120176315E-1
3.385528162E1,1.055986643E0,-4.753913879E-1,1.143741608E-1
3.387518459E1,1.145435810E0,-1.103429794E-1,1.355051994E-1
3.389508615E1,1.051805735E0,-2.240686417E-1,2.291104794E-1
3.391498433E1,7.885253429E-1,-5.126762390E-1,4.267358780E-1
3.393486100E1,7.697358131E-1,-6.528792381E-1,4.929609299E-1
3.395475766E1,1.170727730E0,-4.777069092E-1,5.835912228E-1
3.397463386E1,1.616334200E0,-4.267578125E-1,7.767181396E-1
3.399454714E1,1.723124743E0,-7.134976387E-1,9.473156929E-1
3.401442719E1,1.667613268E0,-9.931859970E-1,1.009630680E0
3.403430313E1,1.823450089E0,-9.197735786E-1,1.182889223E0
3.405421350E1,2.474194765E0,-9.867949486E-1,1.354374647E0
3.407408594E1,3.132698536E0,-1.395008564E0,1.491204262E0
3.409400027E1,3.209078074E0,-1.701068401E0,1.425867081E0
3.411385844E1,3.503066301E0,-1.778138161E0,1.097141743E0
3.413375912E1,4.728206635E0,-1.904532433E0,6.747164726E-1
3.415365667E1,5.501203537E0,-1.788013935E0,-1.624262333E-1
3.417356938E1,5.007239819E0,-1.772203445E0,-1.381441116E0
3.419342240E1,3.974847555E0,-1.997404575E0,-2.535082817E0
3.421332495E1,3.429583549E0,-2.204775333E0,-3.811744452E0
3.423321027E1,3.471860886E0,-2.153913975E0,-4.757444859E0
3.425311756E1,2.891885757E0,-1.874888897E0,-5.057043076E0
3.427299678E1,1.666782379E0,-1.528404713E0,-4.338267326E0
3.429288469E1,2.996611595E-1,-1.405502796E0,-3.889441490E0
3.431275740E1,-4.645705223E-1,-1.142834663E0,-2.675431728E0
3.433266574E1,-8.346271515E-1,-1.129515171E0,-1.646476746E0
3.435257647E1,-1.934592485E0,-1.201939583E0,-1.857971907E0
3.437247094E1,-3.583453178E0,-1.865714073E0,1.520106792E-1
3.439232751E1,-4.842567444E0,-1.423903465E0,3.602394342E0
3.441224240E1,-5.609767437E0,7.932929993E-1,5.629590034E0
3.443214839E1,-6.266472816E0,5.264520645E0,6.783051968E0
3.445204782E1,-4.901634216E0,1.129416656E1,8.458644867E0
3.447191485E1,7.167434692E-2,1.761433220E1,1.033421230E1
3.449182006E1,8.503789902E0,2.550309753E1,1.147781754E1
3.451171318E1,1.679089355E1,3.781502914E1,8.760374069E0
3.453158907E1,1.307070065E1,5.226684570E1,-5.474687219E-1
3.455147959E1,-2.230932713E0,5.217961121E1,-1.921919441E1
3.457136245E1,-3.044261932E-1,3.170534515E1,-5.907408905E1
3.459125006E1,1.578779697E1,7.550295830E0,-7.813111115E1
3.461115120E1,1.563699055E1,1.041028738E0,-7.776454926E1
3.463103782E1,-2.451963425E-1,-1.249142361E1,-7.811878967E1
3.465094339E1,4.254302979E-1,-3.069219017E1,-7.980368042E1
3.467083308E1,1.387657261E1,-5.846873093E1,-7.713298035E1
3.469072818E1,9.975876808E0,-6.946715546E1,-6.039592743E1
3.471061964E1,7.192127228E0,-5.782923889E1,-3.729465485E1
3.473049766E1,6.238515854E0,-5.726676178E1,-2.458027077E1
3.475040235E1,1.092951775E0,-5.048239517E1,-1.348692131E1
3.477026006E1,-1.139581680E0,-3.822188568E1,-5.058894634E0
3.479019751E1,2.106562614E0,-3.085390854E1,-1.925294399E0
3.481004282E1,5.853129387E0,-2.439997101E1,-6.447501183E-1
3.482994094E1,6.545431614E0,-1.909699249E1,-2.547059059E-1
3.484983183E1,6.451925278E0,-1.524521923E1,5.484280586E-1
3.486975105E1,5.619864464E0,-1.310352516E1,2.568583012E0
3.488964896E1,3.902107239E0,-9.046669960E0,6.034729958E0
3.490951782E1,2.065620899E0,-5.124689579E0,4.961650848E0
3.492941094E1,3.806668758E0,-4.284653187E0,1.562689781E0
3.494928152E1,5.132114887E0,-2.739017963E0,-1.011296988E0
3.496919683E1,5.106420994E0,-1.890561104E0,-3.531546831E0
3.498909365E1,4.827425480E0,-9.825310707E-1,-4.416147232E0
3.500897511E1,4.242879868E0,1.243718147E0,-3.586079359E0
3.502886594E1,3.090116024E0,3.211425781E0,-3.991787434E0
3.504877516E1,1.608491898E0,2.506266594E0,-6.610541821E0
3.506864251E1,-5.809168816E-1,2.690287590E0,-7.780234337E0
3.508852922E1,-2.205920219E0,4.529648304E0,-5.732121468E0
3.510842522E1,-2.431057453E0,4.679004669E0,-3.069362164E0
3.512830542E1,-1.433168888E0,3.459168434E0,-3.514292717E0
3.514819469E1,1.241855621E-1,3.052843094E0,-5.754193783E0
3.516810725E1,6.788969040E-2,3.395518303E0,-5.600191593E0
3.518800032E1,-8.731303215E-1,3.176652908E0,-2.918261528E0
3.520786568E1,-1.800896406E0,3.303437233E0,-1.275505781E0
3.522777454E1,-1.919223785E0,3.287052155E0,-2.844928503E0
3.524768964E1,-1.393045664E0,2.860343933E0,-5.273891449E0
3.526758969E1,-1.273932695E0,2.533359528E0,-5.175662041E0
3.528745391E1,-1.484787703E0,2.478936195E0,-3.105501652E0
3.530734933E1,-1.405366182E0,2.787661552E0,-2.304559708E0
3.532724162E1,-1.790724993E0,2.863274574E0,-3.190871716E0
3.534710699E1,-2.792419672E0,2.168876648E0,-3.750290394E0
3.536701542E1,-3.660155296E0,2.224800110E0,-2.938099861E0
3.538690902E1,-4.100216866E0,2.513522148E0,-2.264195442E0
3.540680204E1,-4.056949615E0,2.409898758E0,-2.347862244E0
3.542669558E1,-4.269845963E0,2.242455482E0,-2.772321224E0
3.544658167E1,-4.015088081E0,2.312427521E0,-2.966063261E0
3.546652287E1,-3.287039995E0,2.594281197E0,-2.647223473E0
3.548636714E1,-2.933433056E0,2.560601234E0,-2.271784544E0
3.550626188E1,-2.870591879E0,2.300965309E0,-2.250643492E0
3.552613428E1,-2.400438070E0,2.291961670E0,-2.097464800E0
3.554602542E1,-1.407994270E0,2.051100731E0,-1.700183272E0
3.556590943E1,-8.974480629E-1,1.534436226E0,-1.363407373E0
3.558581511E1,-1.007949591E0,1.105430603E0,-1.181090713E0
3.560572068E1,-9.109067917E-1,1.257316589E0,-1.254771471E0
3.562562037E1,-4.502875805E-1,1.380638123E0,-1.515912175E0
3.564551683E1,2.862007618E-1,1.155644417E0,-1.802343249E0
3.566535475E1,8.211603165E-1,8.806009293E-1,-1.638034225E0
3.568525230E1,7.761311531E-1,5.834245682E-1,-1.519410849E0
3.570517266E1,4.298229218E-1,4.514818192E-1,-1.585090995E0
3.572502355E1,3.420782089E-1,3.253297806E-1,-1.352561712E0
3.574491865E1,5.170845985E-1,1.914310455E-1,-1.018001795E0
3.576483704E1,7.287433147E-1,6.925106049E-2,-9.636592865E-1
3.578470839E1,9.234402180E-1,-1.156415939E-1,-8.968100548E-1
3.580458902E1,1.029574633E0,-3.509635925E-1,-4.593768120E-1
3.582450183E1,1.085523605E0,-5.497102737E-1,-1.035609245E-1
3.584437995E1,9.549279213E-1,-4.004631042E-1,-4.126524925E-2
3.586426209E1,8.368160725E-1,-3.107805252E-1,-2.951407433E-2
3.588419615E1,1.189408064E0,-6.700153351E-1,1.157431602E-1
3.590405063E1,1.511194229E0,-9.856076241E-1,2.832236290E-1
3.592396485E1,1.539993763E0,-8.834609985E-1,2.874391079E-1
3.594384662E1,1.448343515E0,-5.360956192E-1,2.735531330E-1
3.596374089E1,1.390293837E0,-5.580215454E-1,3.902053833E-1
3.598364568E1,1.321042299E0,-8.055748940E-1,5.818881989E-1
3.600357094E1,1.380862474E0,-9.701094627E-1,7.854330540E-1
3.602344027E1,1.589140654E0,-1.042764187E0,8.815817833E-1
3.604327074E1,1.755786180E0,-1.353878498E0,8.515877724E-1
3.606317370E1,2.022166491E0,-1.997696877E0,6.458811760E-1
3.608309766E1,2.399468422E0,-2.697378159E0,3.176140785E-1
3.610296344E1,2.772506952E0,-2.895572186E0,6.369042397E-2
3.612283381E1,2.987693548E0,-2.710089207E0,-1.022486687E-1
3.614274933E1,3.025674820E0,-2.767792225E0,-5.051667690E-1
3.616263522E1,3.092905283E0,-3.134171963E0,-1.240264893E0
3.618252355E1,2.879624128E0,-3.335875511E0,-1.799828172E0
3.620243318E1,2.408496857E0,-2.672162533E0,-1.723942757E0
3.622229803E1,2.435852051E0,-2.233179569E0,-1.657328963E0
3.624219553E1,2.546168327E0,-1.822819233E0,-2.071045160E0
3.626208178E1,2.147362232E0,-1.619703293E0,-1.900887251E0
3.628197027E1,1.357140541E0,-1.723542213E0,-8.571860790E-1
3.630186042E1,1.167969704E-1,-1.768865585E0,3.826880455E-1
3.632177454E1,-1.545761108E0,-1.131196022E0,1.097919703E0
3.634164881E1,-2.798431396E0,-1.340026855E-1,1.792560697E0
3.636155355E1,-3.401530743E0,1.343489170E0,3.096415520E0
3.638144652E1,-3.523297787E0,4.305644512E0,4.768527985E0
3.640134652E1,-2.663960457E0,8.076733589E0,6.143072128E0
3.642123620E1,3.261337280E-1,1.193416595E1,6.905445576E0
3.644110022E1,4.574483871E0,1.652227211E1,6.491003990E0
3.646102808E1,8.325228691E0,2.173295593E1,5.065888405E0
3.648087844E1,1.100001144E1,2.860106850E1,4.484207153E0
3.650079089E1,9.946257591E0,3.539362335E1,1.473969698E0
3.652068725E1,2.880439758E0,3.855694199E1,-8.029518127E0
3.654056360E1,-2.592223644E0,3.461222076E1,-2.841840363E1
3.656045516E1,9.234574318E0,1.703542519E1,-6.239801407E1
3.658033949E1,2.091776657E1,-2.018240213E0,-7.719796753E1
3.660025850E1,1.856032562E1,-1.205802250E1,-7.790810394E1
3.662013225E1,8.820864677E0,-1.841315842E1,-7.820363617E1
3.664001761E1,7.117388725E0,-2.954942513E1,-7.644693756E1
3.665991157E1,1.287896347E1,-5.757887268E1,-6.917891693E1
3.667980011E1,6.843254089E0,-6.626329041E1,-5.103496170E1
3.669973105E1,-4.418087006E-1,-5.609314728E1,-3.165946388E1
3.671962100E1,-2.263089180E0,-5.778753662E1,-2.001934052E1
3.673953074E1,-5.492565155E0,-5.478001022E1,-1.068453407E1
3.675937719E1,-6.638130188E0,-4.071820450E1,-2.814322233E0
3.677927365E1,-4.253129959E0,-3.166794777E1,1.135901928E0
3.679915964E1,6.311459541E-1,-2.409242058E1,2.022861004E0
3.681906141E1,4.371375084E0,-1.693524170E1,1.013683319E0
3.683891709E1,7.257159233E0,-1.154646683E1,4.754209518E-2
3.685880839E1,9.126594543E0,-7.692853928E0,8.664727211E-1
3.687873360E1,8.957199097E0,-4.920037270E0,2.346396923E0
3.689860641E1,7.692694187E0,-2.019699335E0,1.585336208E0
3.691850391E1,7.963237762E0,2.597908974E-1,-1.163458347E0
3.693838787E1,8.339835167E0,1.194420815E0,-1.728098631E0
3.695829183E1,5.750369072E0,1.680703640E0,-4.247224331E-1
3.697817157E1,1.568585396E0,2.095855236E0,-2.528204918E-1
3.699804620E1,3.351974487E-2,2.635203838E0,-2.249540329E0
3.701794282E1,2.002906799E-2,3.270914078E0,-3.987891197E0
3.703783475E1,1.764378548E-1,3.711675644E0,-3.234342575E0
3.705774298E1,-5.003576279E-1,3.808403969E0,-1.992623687E0
3.707765615E1,-1.007837772E0,3.112933159E0,-3.013463736E0
3.709756251E1,-1.549452305E0,3.804975033E0,-4.651169300E0
3.711741464E1,-2.167024851E0,4.630854607E0,-4.605056763E0
3.713729188E1,-2.277366638E0,4.587020874E0,-2.766043186E0
3.715721641E1,-2.525558472E0,3.861548424E0,-1.973096609E0
3.717709777E1,-2.988525867E0,2.680743217E0,-3.020871639E0
3.719696022E1,-3.617969751E0,1.975248337E0,-3.563518047E0
3.721684808E1,-3.818368435E0,1.788735390E0,-2.751990318E0
3.723676933E1,-3.302994013E0,1.772559166E0,-2.111331701E0
3.725662870E1,-2.813710213E0,1.731854439E0,-2.443358660E0
3.727660766E1,-2.755662441E0,1.637111664E0,-2.822194338E0
3.729641110E1,-3.185629845E0,1.848245621E0,-2.451499701E0
3.731629433E1,-3.562089682E0,2.003154755E0,-2.097263813E0
3.733620115E1,-3.555910349E0,1.931679726E0,-2.170504570E0
3.735607636E1,-3.458312511E0,1.963490486E0,-2.338898659E0
3.737598699E1,-3.484576941E0,2.217321396E0,-2.246591330E0
3.739585855E1,-3.700748682E0,2.278913498E0,-1.866875768E0
3.741577995E1,-3.387078285E0,1.998956680E0,-1.391424537E0
3.743566464E1,-2.648231030E0,1.697304726E0,-1.367166996E0
3.745560334E1,-1.799987793E0,1.640536308E0,-1.592337847E0
3.747550527E1,-1.105166674E0,1.468988419E0,-1.615508080E0
3.749532876E1,-8.142886162E-1,1.034772873E0,-1.258171320E0
3.751522886E1,-7.780797482E-1,5.855226517E-1,-1.035769105E0
3.753509938E1,-5.111367702E-1,5.854568481E-1,-1.150701880E0
3.755499428E1,-1.602215767E-1,6.835803986E-1,-1.258107781E0
3.757491381E1,3.339035511E-1,4.804344177E-1,-1.010189652E0
3.759480407E1,7.196779251E-1,3.606309891E-1,-7.431077957E-1
3.761468995E1,6.908156872E-1,4.847555161E-1,-9.694044590E-1
3.763456152E1,4.094944000E-1,5.687417984E-1,-1.102527380E0
3.765447808E1,1.418254375E-1,4.380397797E-1,-7.561805248E-1
3.767436167E1,1.119558811E-1,6.903648376E-3,-4.015142918E-1
3.769426068E1,1.593840122E-1,-2.346534729E-1,-2.228147984E-1
3.771411751E1,3.701560497E-1,-1.462516785E-1,-1.984019279E-1
3.773402131E1,6.011054516E-1,-9.852123260E-2,-8.869814873E-2
3.775391162E1,6.805462837E-1,-2.971868515E-1,8.447098732E-2
3.777380360E1,5.618989468E-1,-5.445375443E-1,1.001281738E-1
3.779372688E1,4.705891609E-1,-6.154851913E-1,1.186685562E-1
3.781361183E1,8.042631149E-1,-6.473369598E-1,2.163026333E-1
3.783352490E1,1.074317932E0,-6.235685349E-1,2.306218147E-1
3.785336266E1,8.306663036E-1,-6.712045670E-1,1.726942062E-1
3.787324350E1,7.213540077E-1,-6.605997086E-1,2.850229740E-1
3.789313657E1,8.902277946E-1,-6.338615417E-1,4.479534626E-1
3.791304985E1,1.119191408E0,-7.311592102E-1,5.515575409E-1
3.793294037E1,1.254011393E0,-7.872776985E-1,6.416339874E-1
3.795284277E1,1.268365383E0,-7.062287331E-1,7.500221729E-1
3.797270761E1,1.530309200E0,-7.059440613E-1,8.948283195E-1
3.799260172E1,1.919138908E0,-8.287596703E-1,1.016168118E0
3.801254251E1,2.001302481E0,-9.550466537E-1,1.008565903E0
3.803240011E1,1.931230545E0,-1.058072567E0,9.040508270E-1
3.805225391E1,1.967475891E0,-1.131603718E0,6.584625244E-1
3.807214266E1,2.218865156E0,-1.024318695E0,1.429145336E-1
3.809203230E1,2.187242270E0,-9.328351021E-1,-5.287737846E-1
3.811194506E1,1.872293472E0,-1.303575039E0,-8.345594406E-1
3.813185245E1,1.558245659E0,-1.493138790E0,-7.623357773E-1
3.815171865E1,1.809893608E0,-1.888211250E0,-9.258500338E-1
3.817162537E1,2.572607994E0,-1.997830868E0,-8.885736465E-1
3.819152959E1,2.596179485E0,-1.539567947E0,-7.073237896E-1
3.821142422E1,2.285249233E0,-1.774615288E0,-1.252884746E0
3.823127365E1,2.314502239E0,-1.797099113E0,-2.312604666E0
3.825117672E1,1.696987152E0,-1.684662819E0,-2.367949009E0
3.827105787E1,-1.176619530E-1,-1.777485847E0,-1.985872626E0
3.829094240E1,-2.364673138E0,-2.026628494E0,-1.172198176E0
3.831084350E1,-4.040093422E0,-2.394665718E0,1.397058249E0
3.833076100E1,-4.254277229E0,-1.658502579E0,4.126574516E0
3.835063370E1,-3.129871845E0,-3.684124947E-1,5.976803303E0
3.837054553E1,-1.297979832E0,2.522716522E0,7.696981907E0
3.839041594E1,1.007602692E0,6.806423187E0,9.682253838E0
3.841030397E1,4.828882217E0,1.245400333E1,1.076271725E1
3.843022292E1,1.204663563E1,1.903508568E1,1.010876656E1
3.845008506E1,1.886409569E1,2.723741913E1,8.251459122E0
3.846999933E1,1.821423340E1,3.698690796E1,4.492092133E0
3.848988162E1,1.030049324E1,4.416086578E1,-3.074086189E0
3.850977870E1,2.373461723E0,3.925637054E1,-1.860195732E1
3.852969990E1,5.172601700E0,1.916379547E1,-4.771731567E1
3.854957600E1,1.632017136E1,1.340231895E0,-7.660160065E1
3.856943782E1,2.439705658E1,-1.498007298E1,-7.878639221E1
3.858932917E1,1.793083954E1,-2.580892754E1,-7.889599609E1
3.860922990E1,6.192146301E0,-3.545606232E1,-7.495143890E1
3.862912912E1,9.489869118E0,-4.877796555E1,-6.132123184E1
3.864901058E1,1.013080692E1,-6.560731506E1,-4.848094940E1
3.866891183E1,1.805581093E0,-6.201622009E1,-2.999020004E1
3.868880183E1,-9.446649551E-1,-5.283165741E1,-1.585082054E1
3.870866350E1,-8.318475723E0,-5.332850647E1,-1.052075100E1
3.872859313E1,-9.185864449E0,-4.652782440E1,-3.672389507E0
3.874848850E1,-5.926565170E0,-3.497955704E1,2.227717876E0
3.876836303E1,-2.356727123E0,-2.565867615E1,5.232750893E0
3.878823730E1,2.865667343E-1,-1.984584808E1,3.162334442E0
3.880813183E1,3.011831760E0,-1.648616791E1,-3.691582680E-1
3.882802022E1,5.390307903E0,-1.213373184E1,3.066325188E-1
3.884789454E1,6.552906036E0,-8.052618027E0,1.754306316E0
3.886780975E1,6.001705647E0,-4.857866287E0,2.386506081E0
3.888770579E1,6.798719406E0,-3.161909342E0,1.518462658E0
3.890760141E1,8.208098412E0,-3.998202324E0,8.040213585E-2
3.892754495E1,7.580725193E0,-2.861520767E0,3.492202759E-1
3.894736464E1,4.327480793E0,3.829522133E-1,3.691577911E-1
3.896724396E1,1.861483097E0,2.331102848E0,-7.296216488E-1
3.898716495E1,1.686862946E0,2.573116302E0,-2.527962685E0
3.900704636E1,8.246054649E-1,3.578072548E0,-3.752005100E0
3.902695058E1,-1.263041019E0,4.292343616E0,-3.399750233E0
3.904681990E1,-1.219773293E0,4.543440819E0,-2.783751965E0
3.906672808E1,-3.503546715E-1,5.384119034E0,-1.766579986E0
3.908660386E1,6.803040504E-1,4.845588684E0,-2.196237087E0
3.910656938E1,3.749942780E-1,4.326427460E0,-3.406777382E0
3.912640100E1,-1.192629099E0,4.153141022E0,-3.549133778E0
3.914627214E1,-2.587587833E0,3.223041534E0,-2.532007217E0
3.916618199E1,-3.168483734E0,2.164670944E0,-1.887994289E0
3.918607798E1,-3.196825981E0,1.680508614E0,-2.296472073E0
3.920596553E1,-3.271057844E0,1.948746681E0,-2.740792036E0
3.922584272E1,-3.289335251E0,1.374329567E0,-2.289264917E0
3.924575313E1,-2.937955856E0,7.126398087E-1,-1.483866692E0
3.926566256E1,-2.509480000E0,8.236351013E-1,-1.463064075E0
3.928553683E1,-1.990378737E0,1.108756065E0,-2.183046579E0
3.930540199E1,-1.697098851E0,9.565610886E-1,-2.469812393E0
3.932531209E1,-1.855932236E0,9.803161621E-1,-1.796250701E0
3.934519126E1,-2.565246582E0,1.507052422E0,-1.394265413E0
3.936509589E1,-3.163281679E0,2.079300880E0,-1.813268065E0
3.938495360E1,-3.248397589E0,2.098244667E0,-1.968328834E0
3.940487162E1,-3.103508472E0,2.012092590E0,-1.432286978E0
3.942474261E1,-2.759403229E0,1.949918747E0,-1.181076050E0
3.944462688E1,-2.596546650E0,2.102872849E0,-1.284663200E0
3.946453001E1,-2.694854498E0,2.080707550E0,-1.268858910E0
3.948443902E1,-2.687362909E0,1.712842941E0,-9.867625237E-1
3.950433256E1,-2.514278412E0,1.593872070E0,-9.310357571E-1
3.952422600E1,-2.002975464E0,1.771948814E0,-1.264972091E0
3.954412058E1,-1.331247211E0,1.561816216E0,-1.411547899E0
3.956397391E1,-1.118958712E0,1.288598061E0,-1.252330780E0
3.958387995E1,-1.240254760E0,1.013905525E0,-1.070880413E0
3.960375969E1,-8.628110886E-1,8.189554214E-1,-1.061499357E0
3.962370808E1,-1.345551014E-1,7.432184219E-1,-1.100603819E0
3.964359949E1,5.273311138E-1,4.513006210E-1,-1.178995132E0
3.966346579E1,5.972888470E-1,3.564081192E-1,-1.088654995E0
3.968332204E1,3.010253906E-1,4.679555893E-1,-8.223571777E-1
3.970321740E1,3.388047218E-1,2.117042542E-1,-5.747921467E-1
3.972310251E1,6.873276234E-1,-2.194032669E-1,-4.577546120E-1
3.974299824E1,9.763531685E-1,-4.064474106E-1,-2.397334576E-1
3.976289475E1,1.287262201E0,-4.320697784E-1,8.491611481E-2
3.978279620E1,1.501081467E0,-5.353412628E-1,1.881616116E-1
3.980267761E1,1.551405668E0,-6.909894943E-1,2.209537029E-1
3.982254798E1,1.443899632E0,-9.243855476E-1,4.585063457E-1
3.984247162E1,1.526559830E0,-9.060845375E-1,6.235716343E-1
3.986233469E1,1.740514040E0,-8.144369125E-1,6.169421673E-1
3.988224495E1,1.760237455E0,-9.889378548E-1,7.659044266E-1
3.990212568E1,1.745656967E0,-1.202296257E0,9.880478382E-1
3.992202693E1,1.967711926E0,-1.347911358E0,1.050619364E0
3.994192475E1,2.220106363E0,-1.406215191E0,1.019350529E0
3.996181641E1,2.165158033E0,-1.368602276E0,9.362165928E-1
3.998170230E1,2.008486748E0,-1.387858868E0,9.814891815E-1
4.000161412E1,2.112153530E0,-1.498576641E0,7.856693268E-1
4.002150954E1,2.144929647E0,-1.263658047E0,1.733386517E-1
4.004137631E1,1.979740381E0,-1.097162247E0,-5.254261494E-1
4.006125772E1,1.590429544E0,-1.932805061E0,-8.829634190E-1
4.008114594E1,1.235611916E0,-2.868204594E0,-3.256056309E-1
4.010101928E1,2.209197283E0,-3.431937218E0,-8.332180977E-2
4.012094829E1,3.350589752E0,-2.890259266E0,-8.713999987E-1
4.014082902E1,2.949759960E0,-2.197108269E0,-1.336448550E0
4.016071995E1,1.453207016E0,-1.822025776E0,-1.239530325E0
4.018061089E1,5.562129021E-1,-2.049547672E0,-2.157545090E-1
4.020050277E1,1.129776478E0,-2.611094952E0,4.456379414E-1
4.022038615E1,2.004556656E0,-2.498517513E0,-1.770638227E-1
4.024026188E1,1.608069420E0,-2.386336327E0,-7.531187534E-1
4.026018381E1,6.240749359E-1,-2.289081097E0,-1.347916126E-1
4.028003824E1,-3.372588158E-1,-2.170203686E0,1.916749001E0
4.029992412E1,-1.239625454E0,-1.216411114E0,3.367517948E0
4.031984506E1,-7.301459312E-1,8.451867104E-1,3.941702127E0
4.033971980E1,1.507238388E0,3.232900143E0,5.349882126E0
4.035964199E1,3.607204437E0,6.252958298E0,6.725688457E0
4.037955313E1,5.193760872E0,1.062336159E1,7.480673313E0
4.039940303E1,1.005839634E1,1.651063728E1,8.446269989E0
4.041928594E1,1.559286404E1,2.474572754E1,8.355457306E0
4.043921016E1,1.455343437E1,3.336814499E1,5.980577469E0
4.045906167E1,7.324164391E0,3.752169418E1,-8.061103225E-1
4.047895053E1,-3.660297394E-1,3.590731049E1,-1.351774120E1
4.049886370E1,7.764024734E-1,2.394153976E1,-3.137241364E1
4.051873532E1,1.076493740E1,6.640455246E0,-5.541594315E1
4.053865672E1,1.864054871E1,-1.444559574E1,-7.332023621E1
4.055853272E1,1.504278278E1,-2.743627548E1,-7.774926758E1
4.057843620E1,4.312174797E0,-3.556023788E1,-7.829613495E1
4.059830699E1,2.906344414E0,-4.358561707E1,-7.093669128E1
4.061819954E1,1.205008030E1,-6.349977493E1,-6.323037338E1
4.063811574E1,1.079444599E1,-7.601661682E1,-4.782236099E1
4.065800985E1,-2.913446426E-1,-7.096807861E1,-3.060675621E1
4.067786402E1,-1.745872974E0,-6.055031204E1,-1.703196907E1
4.069777527E1,-4.590838909E0,-5.629622650E1,-9.110469818E0
4.071769001E1,-6.565640450E0,-5.232725906E1,-2.026812553E0
