"Time (s)","Gyroscope x (rad/s)","Gyroscope y (rad/s)","Gyroscope z (rad/s)"
5.682340400E-2,-1.772281379E-1,-3.943359554E-1,-2.155765295E-1
7.675845600E-2,-1.660431921E-1,-3.473991156E-1,-1.121823564E-1
9.660371600E-2,-1.495320797E-1,-2.595174015E-1,-3.914731368E-2
1.164947060E-1,-1.399449855E-1,-1.230344176E-1,6.724283565E-3
1.363892370E-1,-1.197055578E-1,4.327509087E-3,3.335510939E-2
1.562774660E-1,-9.786828607E-2,7.736254483E-2,4.454005510E-2
1.761778830E-1,-7.117088139E-2,1.130478531E-1,4.613790661E-2
1.960860600E-1,-3.868127242E-2,1.466692686E-1,4.720313847E-2
2.159573100E-1,-4.593817517E-3,2.117150575E-1,4.720313847E-2
2.358608520E-1,3.222329915E-2,3.023264408E-1,3.548557684E-2
2.557496020E-1,6.790860742E-2,3.800884485E-1,1.897446252E-2
2.756427270E-1,1.079214215E-1,4.414059222E-1,2.696371078E-2
2.955087160E-1,1.318891644E-1,5.384086967E-1,4.240959138E-2
3.154011120E-1,1.462698132E-1,6.716960073E-1,6.211639941E-2
3.353124140E-1,1.531938314E-1,7.900034189E-1,8.721595258E-2
3.552011640E-1,1.531938314E-1,8.720929623E-1,1.106510833E-1
3.751071020E-1,1.563895196E-1,9.136370420E-1,1.319557428E-1
3.950008520E-1,1.489328891E-1,9.253546000E-1,1.511299312E-1
4.148966850E-1,1.095192730E-1,9.163001180E-1,1.388797611E-1
4.347632990E-1,4.873441160E-2,8.699625134E-1,9.627043456E-2
4.546559560E-1,-1.205044892E-2,7.974600792E-1,8.508548886E-2
4.745484040E-1,-6.797518581E-2,7.724270821E-1,8.295502514E-2
4.944282990E-1,-1.074553803E-1,8.102428913E-1,6.637733430E-2
5.143482470E-1,-1.037270650E-1,8.593101501E-1,6.584471464E-2
5.342499140E-1,-5.359453708E-2,8.816800714E-1,7.756228000E-2
5.541504870E-1,2.210358530E-2,8.593101501E-1,7.543181628E-2
5.740207990E-1,1.308239251E-1,7.777532339E-1,9.627043456E-2
5.938750180E-1,2.688381970E-1,6.759569049E-1,1.511299312E-1
6.137900700E-1,4.255605936E-1,5.794867873E-1,2.135126442E-1
6.336799660E-1,5.854787230E-1,4.936689436E-1,2.753627300E-1
6.535700700E-1,7.277538776E-1,4.222317338E-1,3.190372884E-1
6.734667370E-1,8.605085611E-1,3.683708906E-1,3.595827222E-1
6.933310600E-1,9.543156624E-1,3.199027777E-1,3.942027986E-1
7.132383520E-1,9.969249368E-1,2.793573737E-1,3.973985016E-1
7.331189240E-1,9.697614908E-1,3.529250026E-1,3.814199865E-1
7.530265810E-1,8.429322243E-1,6.284874678E-1,3.174394369E-1
7.729062680E-1,6.360772848E-1,1.007976770E0,1.810230315E-1
7.928090810E-1,4.351477027E-1,1.267560720E0,4.826837033E-2
8.126986640E-1,2.816875577E-1,1.285669684E0,-2.263620123E-2
8.325941850E-1,1.452045739E-1,1.120957971E0,-7.962616533E-2
8.524612160E-1,3.701684624E-2,9.253546000E-1,-1.212368309E-1
8.723488200E-1,-2.430062927E-2,8.219604492E-1,-1.404110342E-1
8.922948620E-1,-5.679023638E-2,8.171668649E-1,-1.398784071E-1
9.121518410E-1,-5.039883777E-2,8.571797013E-1,-1.063235700E-1
9.320428310E-1,-1.471353136E-2,8.683646321E-1,-5.885412544E-2
9.519278310E-1,3.062544949E-2,8.102428913E-1,-6.058512721E-3
9.718073620E-1,8.868064731E-2,6.828809381E-1,5.306192115E-2
9.917278310E-1,1.654440016E-1,5.181692839E-1,1.143793985E-1
1.011616164E0,2.480661422E-1,3.390769958E-1,1.740990281E-1
1.031470174E0,3.290904164E-1,1.892785877E-1,2.310889959E-1
1.051368924E0,4.079842567E-1,8.854749799E-2,2.711018026E-1
1.071287727E0,4.751605093E-1,4.806863889E-2,2.950695455E-1
1.091147258E0,5.097805858E-1,1.050586104E-1,2.790910602E-1
1.111087987E0,5.071175098E-1,2.085193694E-1,2.161757201E-1
1.130941008E0,4.585828185E-1,2.596505582E-1,1.431406885E-1
1.150842414E0,3.818860352E-1,2.319544852E-1,6.637733430E-2
1.170740852E0,2.730991244E-1,1.109173894E-1,-1.890788600E-2
1.190616477E0,1.457371861E-1,-5.053199083E-2,-9.933298081E-2
1.210488560E0,2.476666868E-2,-1.235670298E-1,-1.478676647E-1
1.230399237E0,-6.477948278E-2,-5.426030606E-2,-1.665092409E-1
1.250289341E0,-1.394123733E-1,6.564498693E-2,-1.958031505E-1
1.270181529E0,-2.209692746E-1,1.152448952E-1,-2.219679356E-1
1.290124966E0,-2.619807422E-1,5.499265343E-2,-2.091851383E-1
1.310026164E0,-2.555893362E-1,-5.266245827E-2,-1.633135378E-1
1.329870070E0,-2.273606807E-1,-1.470021605E-1,-1.019960642E-1
1.349754185E0,-1.719019860E-1,-2.136458009E-1,-3.328853101E-2
1.369648039E0,-9.413997084E-2,-2.450701743E-1,3.868127242E-2
1.389517049E0,-4.593817517E-3,-2.733654380E-1,9.733566642E-2
1.409423404E0,5.938674137E-2,-3.388772607E-1,1.436733007E-1
1.429299185E0,9.294158220E-2,-4.007273614E-1,1.596518010E-1
1.449212727E0,9.673647583E-2,-4.140427709E-1,1.244991124E-1
1.469087310E0,6.045197323E-2,-3.714334369E-1,6.158378348E-2
1.488981008E0,1.837527007E-2,-2.904091477E-1,1.930734841E-3
1.508882831E0,6.657706574E-3,-2.152436525E-1,-3.808208182E-2
1.528779289E0,-3.328853054E-4,-1.827540398E-1,-7.696308941E-2
1.548642883E0,-3.122464381E-2,-1.790257245E-1,-1.270956099E-1
1.568548352E0,-7.649704814E-2,-1.694386303E-1,-1.862160414E-1
1.588459497E0,-1.213034093E-1,-1.549914032E-1,-2.406095117E-1
1.608326477E0,-1.644453406E-1,-1.406107545E-1,-2.725664973E-1
1.628264081E0,-1.842187345E-1,-1.182408631E-1,-2.773600519E-1
1.648165174E0,-1.772281379E-1,-9.267527610E-2,-2.480661422E-1
1.668029393E0,-1.537930220E-1,-9.533835202E-2,-1.899443567E-1
1.687904237E0,-1.127815470E-1,-1.320888996E-1,-1.095192730E-1
1.707775174E0,-5.093145370E-2,-1.891454458E-1,-1.358172111E-2
1.727675799E0,1.890788600E-2,-2.738980353E-1,8.774857223E-2
1.747548195E0,9.726908803E-2,-3.522592485E-1,1.708367467E-1
1.767444758E0,1.937392503E-1,-3.996621072E-1,2.428065538E-1
1.787334758E0,2.997965217E-1,-4.028578103E-1,2.838846147E-1
1.807232362E0,4.058537781E-1,-3.489969671E-1,2.913412452E-1
1.827136477E0,5.039218068E-1,-2.157762647E-1,2.561219633E-1
1.847058924E0,5.523899198E-1,-8.042509109E-2,1.751642525E-1
1.866927727E0,5.518572927E-1,-1.324883569E-2,5.785546824E-2
1.886819914E0,4.985956252E-1,9.653674439E-3,-1.047257185E-1
1.906681841E0,3.840165138E-1,5.073172227E-2,-2.635120153E-1
1.926593039E0,2.571206093E-1,1.317560077E-1,-3.882774413E-1
1.946482258E0,1.244325340E-1,2.175738513E-1,-4.906063974E-1
1.966373247E0,-1.897446252E-2,2.868140042E-1,-5.716306567E-1
1.986265070E0,-1.458037645E-1,3.220332563E-1,-6.227618456E-1
2.006167102E0,-2.465348691E-1,3.161744773E-1,-6.408708096E-1
2.026082674E0,-3.099828064E-1,3.033916950E-1,-6.222292185E-1
2.045918560E0,-3.312874734E-1,2.991307378E-1,-5.668371320E-1
2.065831893E0,-3.035914004E-1,3.028590679E-1,-4.842149913E-1
2.085707362E0,-2.316216081E-1,2.873466015E-1,-3.663735688E-1
2.105585747E0,-1.255643368E-1,2.511286736E-1,-2.246310115E-1
2.125475174E0,-2.463351469E-3,2.036592364E-1,-9.720251709E-2
2.145368768E0,9.939955920E-2,1.754305661E-1,-5.525896326E-3
2.165261893E0,1.819551140E-1,1.834198087E-1,4.081173986E-2
2.185146424E0,2.629793882E-1,1.839524209E-1,4.347482324E-2
2.205121268E0,3.535907865E-1,9.493889660E-2,6.371425092E-2
2.224963247E0,4.505935609E-1,-7.023879886E-2,1.719019860E-1
2.244820070E0,5.156393647E-1,-1.715690941E-1,2.326868325E-1
2.264705174E0,4.644415975E-1,-1.806235760E-1,2.012624592E-1
2.284611424E0,3.088510036E-1,-1.528609395E-1,1.537930220E-1
2.304489445E0,1.238999143E-1,-1.310236603E-1,7.489919662E-2
2.324390904E0,-5.785546824E-2,-1.246322617E-1,2.376801148E-2
2.344300018E0,-2.268280536E-1,-8.415340632E-2,-4.993279930E-3
2.364212362E0,-3.584509194E-1,2.623136342E-2,-3.222329915E-2
2.384130747E0,-4.495949149E-1,1.445388049E-1,-6.311506033E-2
2.404061633E0,-5.077167153E-1,2.111824453E-1,-8.708280325E-2
2.423881893E0,-5.322170258E-1,2.410089672E-1,-1.095192730E-1
2.443744133E0,-5.220973492E-1,2.330197245E-1,-1.382805556E-1
2.463627310E0,-5.002600551E-1,1.850176603E-1,-1.590526104E-1
2.483520695E0,-4.501275420E-1,9.813459218E-2,-1.499981284E-1
2.503423977E0,-3.744959831E-1,-7.922670804E-3,-1.100518852E-1
2.523326581E0,-2.870802879E-1,-9.427312016E-2,-4.181039706E-2
2.543201633E0,-1.756303012E-1,-1.470021605E-1,3.228987753E-2
2.563096685E0,-4.826837033E-2,-1.918085217E-1,1.133141592E-1
2.583004393E0,8.335448056E-2,-2.680392563E-1,2.001972347E-1
2.602875070E0,2.118482143E-1,-3.367467821E-1,2.817541361E-1
2.622774341E0,3.285578191E-1,-3.549223244E-1,3.323526978E-1
2.642683143E0,4.143756330E-1,-3.484643400E-1,3.339505494E-1
2.662570018E0,4.426043332E-1,-3.452686667E-1,2.902759910E-1
2.682440695E0,3.946688473E-1,-3.527918756E-1,2.135126442E-1
2.702348872E0,3.035248220E-1,-3.948685527E-1,1.452711523E-1
2.722239602E0,1.792920381E-1,-4.545882046E-1,1.106510833E-1
2.742146060E0,4.394086078E-2,-3.969990313E-1,1.127815470E-1
2.762021633E0,-6.105116755E-2,-1.944715977E-1,1.367492825E-1
2.781882987E0,-1.213034093E-1,1.924077235E-2,1.826208830E-1
2.801780799E0,-1.548582464E-1,1.541258991E-1,2.305563688E-1
2.821695331E0,-1.516625583E-1,2.229000032E-1,2.561219633E-1
2.841579289E0,-1.149120107E-1,2.745638192E-1,2.454696298E-1
2.861454966E0,-6.424686313E-2,3.257615864E-1,1.991319954E-1
2.881361164E0,2.929390874E-3,3.651751876E-1,1.458037645E-1
2.901269497E0,8.175663650E-2,3.864798546E-1,9.520520270E-2
2.921159497E0,1.505307406E-1,3.784905970E-1,4.826837033E-2
2.941052831E0,2.123808414E-1,3.726318181E-1,7.256899960E-3
2.960934393E0,2.886115611E-1,3.913399875E-1,-1.837527007E-2
2.980825070E0,3.722323775E-1,3.945356905E-1,-1.198387146E-2
3.000720122E0,4.282236695E-1,3.614468873E-1,-4.460663069E-3
3.020595695E0,4.537892640E-1,3.001959920E-1,-1.031944528E-2
3.040482779E0,4.783562124E-1,2.330197245E-1,2.995967865E-3
3.060390227E0,5.012587309E-1,1.988656968E-1,3.495295718E-2
3.080277258E0,5.145741105E-1,1.828871965E-1,5.838808417E-2
3.100180018E0,5.257591009E-1,1.498649716E-1,9.041165560E-2
3.120073404E0,4.964651763E-1,1.130478531E-1,1.159772426E-1
3.139936008E0,3.936035931E-1,1.077216864E-1,1.037270650E-1
3.159814549E0,2.352833450E-1,1.440061927E-1,4.773575440E-2
3.179718091E0,4.181039706E-2,1.967352182E-1,-2.157096937E-2
3.199624810E0,-1.617822647E-1,2.628462613E-1,-9.187635034E-2
3.219500070E0,-3.456681073E-1,3.598490357E-1,-1.686397046E-1
3.239391372E0,-5.061188340E-1,4.275579154E-1,-2.427399755E-1
3.259302154E0,-6.313502789E-1,4.115794003E-1,-2.896768153E-1
3.279169706E0,-7.006570101E-1,3.555881083E-1,-3.269599676E-1
3.299089497E0,-7.224943042E-1,3.092504740E-1,-3.567864895E-1
3.318947154E0,-7.129071951E-1,2.719007432E-1,-3.589169383E-1
3.338859185E0,-6.750914454E-1,2.287587970E-1,-3.381448984E-1
3.358735956E0,-6.079151630E-1,1.424083412E-1,-2.950029671E-1
3.378649497E0,-5.173037648E-1,1.338198967E-2,-2.326202542E-1
3.398541164E0,-4.085834324E-1,-1.166430190E-1,-1.654440016E-1
3.418397206E0,-2.876129150E-1,-2.477332503E-1,-8.175663650E-2
3.438314081E0,-1.447385401E-1,-3.565201759E-1,1.258306485E-2
3.458210852E0,3.462007269E-3,-4.071187377E-1,9.893351793E-2
3.478129549E0,1.515959799E-1,-4.225646257E-1,1.810230315E-1
3.497970695E0,2.730991244E-1,-4.071187377E-1,2.209692746E-1
3.517879706E0,3.168402612E-1,-3.714334369E-1,1.815556586E-1
3.537797518E0,2.773600519E-1,-3.005288541E-1,9.200949967E-2
3.557659133E0,1.766289473E-1,-2.115153372E-1,-1.304910425E-2
3.577548560E0,4.820179567E-2,-1.475347728E-1,-1.047257185E-1
3.597424602E0,-8.395367861E-2,-9.693620354E-2,-1.670418531E-1
3.617323664E0,-1.964689195E-1,-3.881442919E-2,-1.840855777E-1
3.637204654E0,-2.678395212E-1,2.030600421E-2,-1.505307406E-1
3.657090695E0,-2.998631001E-1,8.535179496E-2,-9.453943372E-2
3.677012206E0,-2.993304729E-1,1.381474137E-1,-4.287562892E-2
3.696885122E0,-2.721004486E-1,1.988656968E-1,-1.031944528E-2
3.716768924E0,-2.140452564E-1,2.607157826E-1,6.724283565E-3
3.736672206E0,-1.516625583E-1,2.937380075E-1,1.364829857E-2
3.756568352E0,-5.252930522E-2,3.044569194E-1,1.258306485E-2
3.776441320E0,5.725627393E-2,2.585853040E-1,2.536586113E-2
3.796339133E0,1.452045739E-1,1.828871965E-1,2.589847706E-2
3.816267674E0,2.145113051E-1,1.248319969E-1,1.418091450E-2
3.836121841E0,2.576532364E-1,1.211036816E-1,1.205044892E-2
3.856066424E0,2.390116602E-1,1.679739356E-1,4.027912393E-2
3.875917362E0,1.995980442E-1,1.887459755E-1,6.105116755E-2
3.895779549E0,1.617156863E-1,1.328212470E-1,6.318163127E-2
3.915700956E0,1.105845049E-1,5.991935614E-4,7.010564953E-2
3.935577518E0,6.897383928E-2,-1.091863886E-1,7.170350105E-2
3.955457674E0,4.553871229E-2,-1.001319066E-1,6.904041767E-2
3.975376372E0,4.340824485E-2,4.860125482E-3,6.957302988E-2
3.995236789E0,4.127778113E-2,1.061238423E-1,6.264901906E-2
4.015142102E0,4.074516147E-2,1.328212470E-1,5.465976894E-2
4.035076737E0,4.873441160E-2,1.050586104E-1,4.560529068E-2
4.054924758E0,6.098458916E-2,1.093195379E-1,4.400743917E-2
4.074797258E0,6.737598777E-2,1.903438270E-1,4.294220731E-2
4.094710331E0,6.844121963E-2,3.049895167E-1,5.199668556E-2
4.114583872E0,7.643046975E-2,4.121120274E-1,6.637733430E-2
4.134458560E0,7.749570161E-2,4.862123132E-1,8.668334037E-2
4.154382570E0,8.282186836E-2,5.091148019E-1,1.202381775E-1
4.174250070E0,1.052583382E-1,5.218976140E-1,1.532603949E-1
4.194158977E0,1.377479434E-1,5.304194689E-1,1.906101406E-1
4.214060331E0,1.808898896E-1,5.330825448E-1,2.262954414E-1
4.233917466E0,2.384790480E-1,5.171040297E-1,2.321542203E-1
4.253833352E0,2.981986701E-1,4.637758136E-1,2.737648785E-1
4.273711945E0,3.392101526E-1,4.430037737E-1,3.035914004E-1
4.293598768E0,4.010602236E-1,4.568518102E-1,2.630459666E-1
4.313484497E0,4.996608794E-1,4.153077304E-1,2.300237566E-1
4.333371685E0,5.870765448E-1,3.023264408E-1,2.113821805E-1
4.353295435E0,6.558506489E-1,1.834198087E-1,1.655105799E-1
4.373158716E0,7.240255475E-1,1.055912226E-1,1.031944528E-1
4.393091945E0,7.624405622E-1,5.179695413E-2,1.524614729E-2
4.412983768E0,7.672340870E-1,-2.869471535E-2,-7.802832127E-2
4.432864185E0,7.405366898E-1,-1.310236603E-1,-1.659766138E-1
4.452740174E0,6.760900617E-1,-2.605826259E-1,-2.565880120E-1
4.472621320E0,5.732285380E-1,-3.906076252E-1,-3.285578191E-1
4.492542414E0,4.426043332E-1,-4.583165050E-1,-3.791563809E-1
4.512436997E0,3.147097826E-1,-4.657731354E-1,-3.770259023E-1
4.532322414E0,1.921414137E-1,-4.439358711E-1,-3.290904164E-1
4.552226581E0,7.856093347E-2,-4.023251832E-1,-2.438052148E-1
4.572115799E0,-2.909417637E-2,-3.543896973E-1,-1.414762586E-1
4.592009706E0,-1.271621883E-1,-3.170399666E-1,-4.500609636E-2
4.611866685E0,-2.065886259E-1,-2.765611112E-1,3.601819277E-2
4.631789602E0,-2.571871877E-1,-2.264285982E-1,9.733566642E-2
4.651667727E0,-2.769605815E-1,-1.571218669E-1,1.308905035E-1
4.671534341E0,-2.774932086E-1,-1.107842326E-1,1.399449855E-1
4.691444654E0,-2.667742968E-1,-1.459369212E-1,1.516625583E-1
4.711313404E0,-2.630459666E-1,-2.227002829E-1,1.697715074E-1
4.731209289E0,-2.673069239E-1,-2.589847744E-1,1.938058287E-1
4.751122310E0,-2.780258060E-1,-1.992651522E-1,2.252302021E-1
4.771003143E0,-2.870802879E-1,-9.853405505E-2,2.460022569E-1
4.790891216E0,-2.966673970E-1,-5.372769013E-2,2.684387267E-1
4.810802206E0,-3.094501793E-1,-5.852124095E-2,2.865476906E-1
4.830691477E0,-3.131785095E-1,-6.651048362E-2,2.982652485E-1
4.850572362E0,-2.897433937E-1,-3.721657768E-2,3.179720640E-1
4.870439706E0,-2.380129993E-1,4.487293959E-2,3.350157738E-1
4.890324133E0,-1.900775135E-1,1.184405982E-1,3.328853250E-1
4.910252727E0,-1.543256342E-1,1.285603046E-1,3.195699155E-1
4.930127883E0,-1.303578913E-1,9.440627694E-2,3.062545061E-1
4.950018612E0,-1.234338731E-1,3.315537795E-2,3.147763610E-1
4.969915747E0,-1.367492825E-1,-2.816209756E-2,3.403419554E-1
4.989799445E0,-1.782933772E-1,-6.864095479E-2,3.547225893E-1
5.009698560E0,-2.177735716E-1,-1.294258088E-1,3.707676828E-1
5.029592727E0,-2.593176663E-1,-2.530594170E-1,3.888766170E-1
5.049477049E0,-3.211677670E-1,-3.874119222E-1,3.734307587E-1
5.069340695E0,-3.952680230E-1,-5.200999975E-1,3.568530679E-1
5.089243299E0,-4.730966091E-1,-6.576482654E-1,3.472659588E-1
5.109132674E0,-5.626427531E-1,-7.983255982E-1,3.387441039E-1
5.129061372E0,-6.687000394E-1,-9.316128492E-1,3.318201005E-1
5.148928508E0,-7.657027841E-1,-1.064833522E0,3.169068098E-1
5.168807570E0,-8.477923274E-1,-1.194925189E0,3.254286945E-1
5.188732883E0,-9.053149223E-1,-1.251915097E0,3.398093283E-1
5.208610643E0,-9.272187948E-1,-1.219425559E0,3.446028829E-1
5.228475695E0,-9.453277588E-1,-1.182075739E0,3.296896219E-1
5.248397518E0,-9.735563993E-1,-1.177814841E0,3.062545061E-1
5.268313143E0,-9.714259505E-1,-1.074420691E0,2.412087023E-1
5.288190279E0,-9.095758200E-1,-8.649691939E-1,1.133141592E-1
5.308094185E0,-7.811486721E-1,-6.896052361E-1,-3.009283356E-2
5.327952622E0,-6.025890112E-1,-6.181680560E-1,-1.388131827E-1
5.347860643E0,-4.144422114E-1,-5.681020617E-1,-2.081198990E-1
5.367735852E0,-2.380129993E-1,-4.316191077E-1,-2.576532364E-1
5.387630018E0,-6.957302988E-2,-2.189719677E-1,-3.115140796E-1
5.407496841E0,8.335448056E-2,-6.324821152E-3,-3.669061959E-1
5.427428143E0,2.054568231E-1,1.269624680E-1,-4.127778113E-1
5.447297779E0,2.971334457E-1,1.679739356E-1,-4.495283365E-1
5.467206268E0,3.573191166E-1,1.956699938E-1,-4.842149913E-1
5.487083508E0,4.074516296E-1,2.745638192E-1,-5.097805858E-1
5.506978456E0,4.591154456E-1,3.731644452E-1,-5.161719918E-1
5.526877831E0,5.023239255E-1,4.387428463E-1,-5.326830745E-1
5.546779914E0,5.332157016E-1,4.163729548E-1,-5.566508174E-1
5.566636893E0,5.726959109E-1,2.889444530E-1,-5.817503929E-1
5.586525070E0,6.350120306E-1,1.280276924E-1,-6.153052449E-1
5.606421945E0,6.856771708E-1,4.380770773E-2,-6.509905457E-1
5.626342883E0,7.032535076E-1,8.961272985E-2,-6.856771708E-1
5.646247570E0,7.032535076E-1,2.463351339E-1,-7.224277258E-1
5.666149445E0,7.043187618E-1,4.131772518E-1,-7.357431054E-1
5.686001841E0,7.043187618E-1,5.400065780E-1,-7.416019440E-1
5.705893560E0,6.952642798E-1,5.714309216E-1,-7.346779108E-1
5.725782414E0,6.835467219E-1,5.213649869E-1,-6.995252371E-1
5.745677570E0,6.638398767E-1,4.712324440E-1,-6.633073092E-1
5.765537570E0,6.216966510E-1,4.009270668E-1,-6.387403607E-1
5.785436216E0,5.641740561E-1,3.049895167E-1,-6.169030666E-1
5.805345643E0,5.145741105E-1,2.553896308E-1,-5.844134688E-1
5.825218091E0,4.847475886E-1,2.559222281E-1,-5.417375565E-1
5.845129497E0,4.661060274E-1,2.964010835E-1,-4.906063974E-1
5.865059081E0,4.479304850E-1,3.513271809E-1,-4.266258180E-1
5.884918143E0,4.117125571E-1,3.353486657E-1,-3.706345260E-1
5.904807414E0,3.722323775E-1,2.378132790E-1,-3.381448984E-1
5.924693508E0,3.328187466E-1,1.519954354E-1,-3.173728585E-1
5.944577831E0,2.981986701E-1,1.119826213E-1,-2.966008186E-1
5.964481477E0,2.683055699E-1,6.511236727E-2,-2.661750913E-1
5.984361633E0,2.406095117E-1,2.410089783E-2,-2.390116602E-1
6.004265747E0,2.075872868E-1,2.030600421E-2,-2.097177505E-1
6.024168872E0,1.830203533E-1,6.564498693E-2,-1.792920381E-1
6.044069758E0,1.569221467E-1,1.087869257E-1,-1.468024254E-1
6.063922258E0,1.185737476E-1,1.269624680E-1,-1.009308323E-1
6.083802102E0,8.175663650E-2,1.599846780E-1,-4.926702753E-2
6.103692674E0,4.021254554E-2,1.903438270E-1,8.854749613E-3
6.123588091E0,-1.045259926E-2,1.679739356E-1,7.330134511E-2
6.143470799E0,-7.383396477E-2,1.125152409E-1,1.468690038E-1
6.163348143E0,-1.383471340E-1,7.949301600E-2,2.316216081E-1
6.183276372E0,-2.151104957E-1,7.682993263E-2,3.179720640E-1
6.203145539E0,-2.913412452E-1,1.119826213E-1,3.888766170E-1
6.223053352E0,-3.472659588E-1,1.754305661E-1,4.608464241E-1
6.242935487E0,-3.766264617E-1,1.903438270E-1,5.306192040E-1
6.262812883E0,-3.808873892E-1,1.290929317E-1,6.164370179E-1
6.282712154E0,-3.686372042E-1,6.990591437E-2,6.868090034E-1
6.302592102E0,-3.675054014E-1,3.954677656E-2,7.230269313E-1
6.322485122E0,-3.643096983E-1,4.061200842E-2,7.438655496E-1
6.342381893E0,-3.440702558E-1,4.487293959E-2,7.545178533E-1
6.362283560E0,-2.987978756E-1,-1.537930220E-2,7.646375895E-1
6.382213716E0,-2.246975899E-1,-1.033276021E-1,7.827465534E-1
6.402102570E0,-1.431406885E-1,-9.320788831E-2,7.598440051E-1
6.421954133E0,-8.981245756E-2,4.806863889E-2,6.681674123E-1
6.441854862E0,-6.264901906E-2,1.951373816E-1,5.626427531E-1
6.461754810E0,-4.240959138E-2,2.612484097E-1,4.661726058E-1
6.481649497E0,-4.667052254E-2,2.223673910E-1,3.670393527E-1
6.501508195E0,-6.690994650E-2,1.503975838E-1,2.897433937E-1
6.521401841E0,-5.679023638E-2,1.621151567E-1,2.348173112E-1
6.541323977E0,-1.930734841E-3,2.772268951E-1,2.023276985E-1
6.561180279E0,9.187635034E-2,4.041227698E-1,1.884796619E-1
6.581119237E0,2.075872868E-1,4.408733249E-1,1.863491982E-1
6.600999810E0,3.163076341E-1,3.689035177E-1,1.836861223E-1
6.620861841E0,4.095821083E-1,2.276935577E-1,1.751642525E-1
6.640756060E0,4.948673248E-1,1.125152409E-1,1.559234858E-1
6.660639602E0,5.732285380E-1,6.777545065E-2,1.282274276E-1
6.680543716E0,6.435338855E-1,6.298190355E-2,9.413997084E-2
6.700426112E0,7.075144649E-1,9.600412846E-2,4.773575440E-2
6.720311581E0,7.741581202E-1,1.163101271E-1,-2.902759984E-2
6.740222622E0,8.167673945E-1,2.356828004E-2,-1.249651462E-1
6.760116008E0,8.061150908E-1,-1.629806459E-1,-2.272941023E-1
6.780009081E0,7.709624171E-1,-3.314206302E-1,-3.274925649E-1
6.799912831E0,7.528534532E-1,-4.294886291E-1,-4.202344418E-1
6.819781060E0,7.325474620E-1,-5.009258389E-1,-5.044544339E-1
6.839674497E0,6.766226888E-1,-6.240268350E-1,-5.758916140E-1
6.859576737E0,6.137073636E-1,-8.186315894E-1,-6.195661426E-1
6.879464289E0,5.566508174E-1,-9.891354442E-1,-6.734269857E-1
6.899348456E0,4.890085459E-1,-1.039800644E0,-7.250908017E-1
6.919254497E0,4.085168540E-1,-9.321454763E-1,-7.320148349E-1
6.939138820E0,3.205685616E-1,-7.205635905E-1,-7.027209401E-1
6.959030747E0,2.214353085E-1,-4.982627332E-1,-6.398055553E-1
6.978925435E0,1.121823564E-1,-3.543896973E-1,-5.550529957E-1
6.998824081E0,-8.322132751E-3,-3.394098580E-1,-4.372781515E-1
7.018700487E0,-1.463363916E-1,-3.922054768E-1,-3.056553006E-1
7.038590070E0,-2.865476906E-1,-4.209667742E-1,-1.798246503E-1
7.058487414E0,-4.181705415E-1,-3.943359554E-1,-4.074516147E-2
7.078372362E0,-5.338149071E-1,-3.458012640E-1,1.143793985E-1
7.098270956E0,-6.201653481E-1,-3.031919599E-1,2.539914846E-1
7.118169602E0,-6.777545214E-1,-2.707023323E-1,3.622457981E-1
7.138063977E0,-7.214290500E-1,-2.189719677E-1,4.448013604E-1
7.157926997E0,-7.539852262E-1,-1.294258088E-1,5.109124184E-1
7.177816424E0,-7.822139263E-1,-1.910761744E-2,5.509251952E-1
7.197712622E0,-7.848770022E-1,1.018629037E-2,5.791538954E-1
7.217610383E0,-7.475938797E-1,-2.922733128E-2,6.025890112E-1
7.237492206E0,-7.075810432E-1,-7.350108027E-2,5.967302322E-1
7.257377831E0,-6.782871485E-1,-7.456631213E-2,6.095130444E-1
7.277290122E0,-6.580476761E-1,-7.390053943E-3,6.308176517E-1
7.297177935E0,-6.366764903E-1,7.842778414E-2,6.441996694E-1
7.317088924E0,-6.084477901E-1,1.477345079E-1,6.564498544E-1
7.336940070E0,-5.796865225E-1,1.786262691E-1,6.585803032E-1
7.356856372E0,-5.471302867E-1,1.802241057E-1,6.569824815E-1
7.376735279E0,-5.082492828E-1,1.722348630E-1,6.473953724E-1
7.396612674E0,-4.656399786E-1,1.812893450E-1,6.169696450E-1
7.416495852E0,-4.053877294E-1,2.159759998E-1,5.770233870E-1
7.436411477E0,-3.350157738E-1,2.649767101E-1,5.375432372E-1
7.456317206E0,-2.736983001E-1,3.273594379E-1,4.837489426E-1
7.476205643E0,-2.199040353E-1,3.859472275E-1,4.128443599E-1
7.496139029E0,-1.655105799E-1,4.643084407E-1,3.312874734E-1
7.515965799E0,-1.085206121E-1,5.826824903E-1,2.358825356E-1
7.535844758E0,-3.761604056E-2,6.759569049E-1,1.436733007E-1
7.555788768E0,5.459319428E-2,7.111096382E-1,4.667052254E-2
7.575653820E0,1.585199833E-1,7.143053412E-1,-5.459319428E-2
7.595553404E0,2.720338702E-1,7.388056517E-1,-1.457371861E-1
7.615432831E0,3.893426657E-1,7.862751484E-1,-2.225005478E-1
7.635311008E0,4.884759188E-1,8.022536039E-1,-2.757622004E-1
7.655205747E0,5.625761747E-1,8.102428913E-1,-3.083183765E-1
7.675146477E0,6.222292185E-1,8.587775230E-1,-3.397427499E-1
7.694974081E0,6.681008339E-1,8.971259594E-1,-3.589169383E-1
7.714869133E0,6.894055009E-1,8.453955650E-1,-3.866795897E-1
7.734785956E0,6.851445436E-1,7.111096382E-1,-4.212996662E-1
7.754662622E0,6.734269857E-1,5.794867873E-1,-4.468652606E-1
7.774563977E0,6.686334610E-1,4.910058379E-1,-4.569849670E-1
7.794440799E0,6.665030122E-1,4.499278069E-1,-4.516588151E-1
7.814332831E0,6.638398767E-1,4.520582557E-1,-4.372781515E-1
7.834257310E0,6.617094278E-1,4.376776218E-1,-4.228975177E-1
7.854155904E0,6.403381824E-1,3.401422203E-1,-4.127778113E-1
7.874037935E0,5.993267298E-1,2.090519816E-1,-3.952014446E-1
7.893890174E0,5.684349537E-1,1.370821744E-1,-3.802216053E-1
7.913814289E0,5.326830745E-1,9.227581322E-2,-3.525255620E-1
7.933690747E0,4.804866612E-1,3.102491237E-2,-3.024595976E-1
7.953592622E0,4.122451842E-1,-2.443378232E-2,-2.427399755E-1
7.973449654E0,3.306882679E-1,-6.704310328E-2,-1.867486686E-1
7.993350174E0,2.454030514E-1,-1.203713343E-1,-1.414762586E-1
8.013236529E0,1.499981284E-1,-1.955368370E-1,-8.868064731E-2
8.033125695E0,4.500609636E-2,-2.509289682E-1,-2.689713426E-2
8.053019393E0,-6.105116755E-2,-2.530594170E-1,2.536586113E-2
8.072913612E0,-1.601844132E-1,-2.381461561E-1,7.063826174E-2
8.092815435E0,-2.577198148E-1,-2.487984896E-1,1.037270650E-1
8.112701581E0,-3.547225893E-1,-2.856155932E-1,1.298252791E-1
8.132565539E0,-4.410730600E-1,-3.250292242E-1,1.575213373E-1
8.152456216E0,-5.204994678E-1,-3.394098580E-1,1.762294918E-1
8.172374654E0,-5.908714533E-1,-3.319532275E-1,1.895449013E-1
8.192278872E0,-6.361438632E-1,-3.367467821E-1,2.060560137E-1
8.212153977E0,-6.729609370E-1,-3.559875488E-1,2.305563688E-1
8.232060904E0,-7.113093734E-1,-3.693029881E-1,2.465348691E-1
8.251941477E0,-7.502569556E-1,-3.591832519E-1,2.663082480E-1
8.271841737E0,-7.763551474E-1,-3.101159632E-1,3.030588031E-1
8.291720070E0,-7.859422565E-1,-2.461353987E-1,3.382114768E-1
8.311623456E0,-7.710289955E-1,-1.992651522E-1,3.760938346E-1
8.331506737E0,-7.396045923E-1,-1.635132730E-1,4.123117626E-1
8.351415643E0,-6.990591884E-1,-1.443390697E-1,4.293554723E-1
8.371303456E0,-6.479279995E-1,-1.406107545E-1,4.298880994E-1
8.391173195E0,-5.775560141E-1,-1.262301207E-1,4.160400629E-1
8.411087831E0,-5.002600551E-1,-1.054580659E-1,3.883440197E-1
8.430969914E0,-4.234966934E-1,-7.563154399E-2,3.499290347E-1
8.450872622E0,-3.382114768E-1,-2.762948163E-2,2.972000241E-1
8.470750591E0,-2.539914846E-1,1.711030491E-2,2.332194597E-1
8.490624289E0,-1.777607650E-1,3.954677656E-2,1.660431921E-1
8.510515852E0,-1.133141592E-1,6.138405204E-2,8.774857223E-2
8.530424810E0,-5.572500080E-2,9.387365729E-2,4.061201122E-3
8.550327935E0,1.571218669E-2,1.227015257E-1,-7.003907114E-2
8.570211112E0,9.240896255E-2,1.429409534E-1,-1.308239251E-1
8.590090904E0,1.670418531E-1,1.780936420E-1,-1.681070924E-1
8.609980643E0,2.406095117E-1,2.537917793E-1,-1.969349533E-1
8.629858924E0,3.131119311E-1,3.454683721E-1,-2.347507328E-1
8.649777727E0,3.733641803E-1,3.945356905E-1,-2.757622004E-1
8.669648352E0,4.111799598E-1,3.940030634E-1,-3.083183765E-1
8.689560643E0,4.378107786E-1,4.003944695E-1,-3.242968917E-1
8.709441060E0,4.677038789E-1,4.541887343E-1,-3.376123011E-1
8.729320122E0,4.884759188E-1,5.171040297E-1,-3.669061959E-1
8.749228560E0,4.879432917E-1,5.559850335E-1,-4.058537781E-1
8.769100904E0,4.788888097E-1,5.085821748E-1,-4.532566369E-1
8.789002310E0,4.810192883E-1,3.571859598E-1,-4.804866612E-1
8.808900331E0,5.103132129E-1,2.036592364E-1,-4.810192883E-1
8.828802831E0,5.555856228E-1,1.237667650E-1,-4.601806700E-1
8.848692935E0,5.737611651E-1,1.002650559E-1,-4.170387387E-1
8.868545799E0,5.593804717E-1,1.050586104E-1,-3.727649748E-1
8.888465799E0,5.167046189E-1,1.163101271E-1,-3.285578191E-1
8.908355487E0,4.559197426E-1,1.055912226E-1,-2.784252763E-1
8.928264081E0,3.909405172E-1,6.990591437E-2,-2.209026963E-1
8.948164289E0,3.115140796E-1,4.647079110E-2,-1.462698132E-1
8.968039185E0,2.283593267E-1,6.564498693E-2,-7.643046975E-2
8.987930227E0,1.547916681E-1,1.034607589E-1,-1.890788600E-2
9.007824185E0,9.993217140E-2,1.418757290E-1,2.270277962E-2
9.027697049E0,6.631075591E-2,1.733001024E-1,4.134435579E-2
9.047596320E0,4.660394415E-2,1.844850481E-1,4.027912393E-2
9.067486945E0,3.914731368E-2,1.898112148E-1,1.684399694E-2
9.087371060E0,3.541899845E-2,2.047244757E-1,-1.411433797E-2
9.107254549E0,3.382114694E-2,2.479329854E-1,-3.914731368E-2
9.127143820E0,2.902759984E-2,2.857487500E-1,-6.684337556E-2
9.147056685E0,1.304910425E-2,2.324871123E-1,-8.814803511E-2
9.166942310E0,-4.061201122E-3,1.093195379E-1,-9.560466558E-2
9.186823039E0,-2.536586113E-2,-6.857437547E-3,-9.347419441E-2
9.206728456E0,-4.986622185E-2,-4.999937490E-2,-7.270215452E-2
9.226608977E0,-6.318163127E-2,-3.082518093E-2,-5.193011090E-2
9.246505331E0,-7.330134511E-2,-2.123808302E-2,-2.902759984E-2
9.266368977E0,-7.276873291E-2,-2.443378232E-2,-4.460663069E-3
9.286281997E0,-5.785546824E-2,-3.189041466E-2,5.659050308E-3
9.306203195E0,-3.015941009E-2,-7.722939551E-2,7.256899960E-3
9.326088560E0,1.517957076E-2,-1.411433816E-1,1.844184659E-2
9.345966737E0,6.364767253E-2,-1.544587910E-1,4.187697172E-2
9.365829445E0,1.020626426E-1,-1.177082509E-1,7.117088139E-2
9.385766008E0,1.270956099E-1,-6.864095479E-2,1.026618332E-1
9.405634445E0,1.329544038E-1,-5.319507420E-2,1.213034093E-1
9.425522987E0,1.153780520E-1,-1.203713343E-1,1.175750941E-1
9.445394289E0,9.187635034E-2,-2.333526164E-1,1.165098622E-1
9.465300174E0,7.216953486E-2,-3.159747422E-1,1.372819096E-1
9.485172727E0,5.512581021E-2,-3.340837061E-1,1.922079772E-1
9.505156216E0,1.837527007E-2,-2.989310026E-1,2.460022569E-1
9.524976945E0,-5.146406963E-2,-2.562551200E-1,2.764279842E-1
9.544862154E0,-1.468690038E-1,-2.770937383E-1,2.886781394E-1
9.564782518E0,-2.550567389E-1,-3.468665183E-1,2.940043211E-1
9.584656945E0,-3.531247377E-1,-3.703682125E-1,2.844172120E-1
9.604550695E0,-4.341490269E-1,-3.324858546E-1,2.673735023E-1
9.624419133E0,-5.103797913E-1,-2.808220685E-1,2.518610358E-1
9.644347935E0,-5.887410045E-1,-2.109827101E-1,2.385456264E-1
9.664238560E0,-6.564498544E-1,-1.352845877E-1,2.262954414E-1
9.684150799E0,-7.054505944E-1,-1.193061024E-1,2.316216081E-1
9.704070331E0,-7.433329225E-1,-1.896780580E-1,2.679060996E-1
9.723866320E0,-7.752898932E-1,-2.659088075E-1,3.099828064E-1
9.743785174E0,-8.013881445E-1,-2.600499988E-1,3.387441039E-1
9.763671529E0,-8.051164150E-1,-1.784931123E-1,3.606479466E-1
9.783551945E0,-7.811486721E-1,-9.587097168E-2,3.713002801E-1
9.803457883E0,-7.299509048E-1,-7.989247888E-2,3.750286102E-1
9.823347570E0,-6.511237025E-1,-1.251648813E-1,3.771590590E-1
9.843229654E0,-5.551861525E-1,-1.774278730E-1,3.675719798E-1
9.863129758E0,-4.651073813E-1,-2.051239312E-1,3.435376585E-1
9.883035331E0,-4.053877294E-1,-2.099174857E-1,3.153089881E-1
9.902911008E0,-3.515268862E-1,-2.051239312E-1,2.828193605E-1
9.922775279E0,-2.918738425E-1,-2.083196342E-1,2.539914846E-1
9.942701164E0,-2.449370176E-1,-2.088522464E-1,2.380129993E-1
9.962562883E0,-2.129800320E-1,-1.705038548E-1,2.092517167E-1
9.982473456E0,-1.804238409E-1,-9.214265645E-2,1.687062830E-1
1.000236309E1,-1.335535944E-1,-3.774919361E-2,1.244991124E-1
1.002226564E1,-7.916013151E-2,-1.857500151E-2,8.022536337E-2
1.004215762E1,-2.217016183E-2,-2.762948163E-2,3.175725788E-2
1.006205497E1,3.169068322E-2,-6.864095479E-2,-2.103835158E-2
1.008191799E1,6.045197323E-2,-1.059906855E-1,-8.495233208E-2
1.010182991E1,9.027849883E-2,-9.480573982E-2,-1.361500919E-1
1.012171439E1,1.308239251E-1,-5.792204756E-3,-1.760963351E-1
1.014160101E1,1.846182048E-1,1.227015257E-1,-2.406095117E-1
1.016147892E1,2.406095117E-1,2.159759998E-1,-3.152424097E-1
1.018136476E1,3.024595976E-1,2.442046702E-1,-4.106473327E-1
1.020125528E1,3.733641803E-1,2.079867423E-1,-5.087153316E-1
1.022114590E1,4.580501914E-1,1.168427467E-1,-5.918700695E-1
1.024103544E1,5.663045049E-1,1.284937374E-2,-6.665030122E-1
1.026095419E1,6.638398767E-1,-5.053199083E-2,-7.304169536E-1
1.028083356E1,7.453967929E-1,-4.946675897E-2,-7.704297900E-1
1.030074491E1,8.194305301E-1,1.338198967E-2,-7.794842720E-1
1.032062200E1,8.802153468E-1,7.842778414E-2,-7.463954687E-1
1.034050012E1,9.196289778E-1,5.818835273E-2,-6.734269857E-1
1.036040174E1,9.105744958E-1,-3.934704512E-2,-5.876091719E-1
1.038030585E1,8.578454852E-1,-1.123820841E-1,-5.193676949E-1
1.040020304E1,7.667014599E-1,-1.347519755E-1,-4.596480429E-1
1.042010877E1,6.318163276E-1,-1.342193633E-1,-3.925383687E-1
1.044000554E1,4.719648063E-1,-1.177082509E-1,-3.237642646E-1
1.045987195E1,3.184380829E-1,-8.415340632E-2,-2.555227578E-1
1.047977794E1,1.814225018E-1,-2.443378232E-2,-1.980001926E-1
1.049964413E1,7.003907114E-2,6.937330216E-2,-1.462698132E-1
1.051954033E1,-2.463351469E-3,1.637129933E-1,-9.933298081E-2
1.053944044E1,-4.667052254E-2,2.036592364E-1,-6.311506033E-2
1.055930840E1,-7.383396477E-2,1.738327146E-1,-3.328853101E-2
1.057921981E1,-8.821461350E-2,1.269624680E-1,-1.890788600E-2
1.059909866E1,-9.840089828E-2,1.050586104E-1,-1.031944528E-2
1.061898955E1,-9.680305421E-2,1.264298409E-1,7.789516356E-3
1.063886429E1,-8.661676198E-2,1.413431019E-1,2.110492997E-2
1.065875507E1,-7.117088139E-2,9.973244369E-2,2.856156044E-2
1.067864726E1,-5.093145370E-2,2.623136342E-2,2.856156044E-2
1.069856585E1,-2.962679416E-2,-2.390116639E-2,2.323539555E-2
1.071843903E1,-1.364829857E-2,-4.041227698E-2,2.483324520E-2
1.073833049E1,1.797580742E-3,-5.212984234E-2,4.507267103E-2
1.075825497E1,6.125089712E-3,-6.864095479E-2,7.063826174E-2
1.077813262E1,-3.328853054E-4,-8.362079412E-2,9.360735118E-2
1.079803169E1,-8.322132751E-3,-9.054480493E-2,1.197055578E-1
1.081790049E1,-1.471353136E-2,-1.150451675E-1,1.511299312E-1
1.083778205E1,-1.950708032E-2,-1.549914032E-1,1.943384558E-1
1.085768648E1,-4.134435579E-2,-1.613828093E-1,2.225671262E-1
1.087760309E1,-7.436657697E-2,-1.438064575E-1,2.444044054E-1
1.089745184E1,-1.223686412E-1,-1.310236603E-1,2.539914846E-1
1.091736632E1,-1.842187345E-1,-1.171756312E-1,2.507958114E-1
1.093725898E1,-2.534588873E-1,-1.081211492E-1,2.438717782E-1
1.095716096E1,-3.083849549E-1,-9.693620354E-2,2.428065538E-1
1.097704439E1,-3.515268862E-1,-7.722939551E-2,2.380129993E-1
1.099690403E1,-3.968658745E-1,-4.520582780E-2,2.294911444E-1
1.101681023E1,-4.373447299E-1,-1.431406848E-2,2.310889959E-1
1.103672116E1,-4.661726058E-1,6.457975134E-3,2.460022569E-1
1.105659273E1,-4.890751243E-1,1.977338828E-2,2.582524419E-1
1.107649575E1,-5.263582468E-1,2.356828004E-2,2.657090724E-1
1.109638783E1,-5.578492284E-1,1.924077235E-2,2.748301327E-1
1.111627158E1,-5.732951164E-1,9.121057577E-3,2.972000241E-1
1.113619283E1,-5.669037104E-1,-2.070546709E-2,3.302222490E-1
1.115608148E1,-5.460650921E-1,-7.296846062E-2,3.531247377E-1
1.117595663E1,-5.487281680E-1,-1.278279573E-1,3.563204408E-1
1.119584366E1,-5.610449314E-1,-1.528609395E-1,3.472659588E-1
1.121575648E1,-5.775560141E-1,-1.315562725E-1,3.339505494E-1
1.123561231E1,-5.732951164E-1,-8.095771074E-2,3.238308430E-1
1.125551611E1,-5.455324650E-1,-1.324883569E-2,3.163742125E-1
1.127541148E1,-4.949339032E-1,7.629731297E-2,3.025261760E-1
1.129529533E1,-4.304207265E-1,1.317560077E-1,2.764279842E-1
1.131518366E1,-3.595161438E-1,1.045259908E-1,2.593176663E-1
1.133512200E1,-2.785584331E-1,2.995967865E-2,2.497305721E-1
1.135495820E1,-2.044581622E-1,-3.242303059E-2,2.364151478E-1
1.137487273E1,-1.692388952E-1,-6.438001990E-2,2.103169411E-1
1.139473856E1,-1.527277827E-1,-6.171693653E-2,1.831535101E-1
1.141464981E1,-1.415428370E-1,-2.869471535E-2,1.591191888E-1
1.143452601E1,-1.372819096E-1,-6.857437547E-3,1.399449855E-1
1.145442210E1,-1.250317246E-1,-7.390053943E-3,1.244991124E-1
1.147431012E1,-1.154446304E-1,-2.070546709E-2,1.122489274E-1
1.149421981E1,-1.079879999E-1,-3.774919361E-2,9.893351793E-2
1.151414163E1,-1.026618332E-1,-5.319507420E-2,9.467258304E-2
1.153396059E1,-8.981245756E-2,-5.212984234E-2,9.520520270E-2
1.155386267E1,-7.223611325E-2,-4.360797629E-2,9.041165560E-2
1.157377981E1,-5.199668556E-2,-4.467320815E-2,8.402025700E-2
1.159365439E1,-3.442034125E-2,-4.999937490E-2,7.223611325E-2
1.161355294E1,-2.430062927E-2,-5.852124095E-2,6.318163127E-2
1.163343872E1,-1.631138101E-2,-4.999937490E-2,6.211639941E-2
1.165334340E1,-1.930734841E-3,-3.135779873E-2,6.637733430E-2
1.167320221E1,6.657706574E-3,-3.082518093E-2,7.063826174E-2
1.169312783E1,2.929390874E-3,-3.402087837E-2,7.436657697E-2
1.171299559E1,8.788172156E-3,6.657706399E-5,6.957302988E-2
1.173289939E1,2.689713426E-2,3.848154470E-2,5.412715301E-2
1.175279590E1,5.565842614E-2,5.019910634E-2,4.667052254E-2
1.177267677E1,8.921326697E-2,6.191666797E-2,4.081173986E-2
1.179256161E1,1.148454323E-1,8.428656310E-2,2.802894451E-2
1.181244229E1,1.281608492E-1,9.706936032E-2,1.205044892E-2
1.183234218E1,1.494655013E-1,1.055912226E-1,-3.928046674E-3
1.185230614E1,1.808898896E-1,1.264298409E-1,-2.583190054E-2
1.187213354E1,1.995980442E-1,1.296255440E-1,-5.139749497E-2
1.189204057E1,2.102503628E-1,1.013302878E-1,-6.524552405E-2
1.191191713E1,2.288919389E-1,1.082543060E-1,-6.950645149E-2
1.193179422E1,2.533923090E-1,1.647782326E-1,-7.643046975E-2
1.195171484E1,2.746969759E-1,2.025940120E-1,-8.974587917E-2
1.197159734E1,3.008617461E-1,1.717022508E-1,-1.047257185E-1
1.199148786E1,3.306882679E-1,9.547150880E-2,-1.041931063E-1
1.201138432E1,3.535907865E-1,3.102491237E-2,-9.081111848E-2
1.203124515E1,3.706345260E-1,1.711030491E-2,-5.778888986E-2
1.205112453E1,4.026580751E-1,6.351451576E-2,-2.476666868E-2
1.207101739E1,4.388760030E-1,1.114500016E-1,-1.797580742E-3
1.209093849E1,4.617785215E-1,9.973244369E-2,1.737661287E-2
1.211082838E1,4.601806700E-1,2.090519853E-2,2.536586113E-2
1.213069890E1,4.452674091E-1,-9.480573982E-2,2.163754590E-2
1.215059698E1,4.420717061E-1,-1.624480337E-1,9.919982404E-3
1.217048182E1,4.564523399E-1,-1.491326243E-1,-1.784265228E-2
1.219037255E1,4.826171398E-1,-1.262301207E-1,-3.914731368E-2
1.221026901E1,4.895411432E-1,-1.608501822E-1,-6.418029219E-2
1.223019442E1,4.895411432E-1,-2.503963411E-1,-7.749570161E-2
1.225009192E1,5.049870014E-1,-3.085181117E-1,-8.335448056E-2
1.226994489E1,5.044544339E-1,-3.079854846E-1,-1.035939083E-1
1.228982479E1,4.922042489E-1,-3.181052208E-1,-1.063235700E-1
1.230971062E1,4.953999221E-1,-3.468665183E-1,-9.240896255E-2
1.232959505E1,5.140414834E-1,-3.645094335E-1,-6.471290439E-2
1.234951474E1,5.193676949E-1,-3.703682125E-1,-2.050573565E-2
1.236941448E1,5.161719918E-1,-3.639768064E-1,4.667052254E-2
1.238929776E1,5.103132129E-1,-3.138442934E-1,1.010639817E-1
1.240919682E1,4.585828185E-1,-2.221676558E-1,1.250317246E-1
1.242906989E1,3.813534081E-1,-1.240996495E-1,1.276948154E-1
1.244898119E1,3.237642646E-1,-7.509893179E-2,1.101184636E-1
1.246887599E1,2.762948275E-1,-1.011971384E-1,9.786828607E-2
1.248876437E1,2.283593267E-1,-1.107842326E-1,7.969274372E-2
1.250865338E1,1.856834292E-1,-4.307536036E-2,4.826837033E-2
1.252855630E1,1.446719617E-1,6.777545065E-2,1.577876508E-2
1.254842588E1,1.270956099E-1,1.487997323E-1,-1.677742042E-2
1.256832177E1,1.286934614E-1,1.370821744E-1,-3.222329915E-2
1.258821062E1,1.281608492E-1,5.605788901E-2,-3.861469775E-2
1.260812489E1,1.286934614E-1,-4.726971500E-3,-4.553871229E-2
1.262798218E1,1.201715991E-1,-8.455286734E-3,-5.246272683E-2
1.264786609E1,1.063235700E-1,6.990591530E-3,-5.352795869E-2
1.266779619E1,9.513862431E-2,2.303566411E-2,-5.193011090E-2
1.268767953E1,7.802832127E-2,2.303566411E-2,-4.660394415E-2
1.270756317E1,4.660394415E-2,1.664426643E-3,-3.754946589E-2
1.272746140E1,1.624480449E-2,-1.804238372E-2,-3.328853101E-2
1.274735078E1,1.797580742E-3,-1.005313639E-2,-3.435376659E-2
1.276721885E1,-8.854749613E-3,1.178414002E-2,-3.169068322E-2
1.278711208E1,-2.217016183E-2,3.688369319E-2,-2.956021577E-2
1.280703422E1,-3.442034125E-2,6.671021879E-2,-3.701684624E-2
1.282689104E1,-5.732285231E-2,6.724283099E-2,-5.193011090E-2
1.284680026E1,-8.129059523E-2,4.487293959E-2,-6.577813625E-2
1.286670989E1,-1.037270650E-1,6.351451576E-2,-7.962616533E-2
1.288659099E1,-1.394123733E-1,1.130478531E-1,-1.073888019E-1
1.290646041E1,-1.996646076E-1,1.285603046E-1,-1.414762586E-1
1.292635526E1,-2.769605815E-1,1.087869257E-1,-1.819551140E-1
1.294625520E1,-3.675054014E-1,9.014534205E-2,-2.230331600E-1
1.296617656E1,-4.581167698E-1,1.093195379E-1,-2.571206093E-1
1.298607187E1,-5.423367620E-1,1.690391600E-1,-2.832188308E-1
1.300591422E1,-6.159043908E-1,2.149107605E-1,-3.051226735E-1
1.302580646E1,-6.846785545E-1,2.079867423E-1,-3.344165981E-1
1.304571474E1,-7.518547773E-1,1.770284176E-1,-3.599821925E-1
1.306561119E1,-7.981924415E-1,1.647782326E-1,-3.786237538E-1
1.308547968E1,-8.258884549E-1,1.754305661E-1,-3.807542324E-1
1.310536182E1,-8.520532846E-1,1.962026060E-1,-3.706345260E-1
1.312528640E1,-8.760210276E-1,2.047244757E-1,-3.344165981E-1
1.314516307E1,-8.680317402E-1,1.972678453E-1,-2.800231278E-1
1.316512880E1,-8.520532846E-1,1.669086963E-1,-2.177069932E-1
1.318494968E1,-8.408682942E-1,1.546585262E-1,-1.686397046E-1
1.320484422E1,-8.205623031E-1,1.578542143E-1,-1.345522404E-1
1.322477271E1,-8.099099994E-1,1.418757290E-1,-1.169759035E-1
1.324463750E1,-7.987250090E-1,1.147122830E-1,-1.003982127E-1
1.326449474E1,-7.678332925E-1,9.919982404E-2,-8.708280325E-2
1.328440359E1,-7.123745680E-1,8.268871158E-2,-6.311506033E-2
1.330432000E1,-6.366764903E-1,5.765573680E-2,-3.009283356E-2
1.332421088E1,-5.455324650E-1,2.356828004E-2,1.398118329E-3
1.334412385E1,-4.597146213E-1,-3.029256500E-2,2.589847706E-2
1.336396718E1,-3.904744685E-1,-1.054580659E-1,3.974650800E-2
1.338387661E1,-3.462007344E-1,-1.731669456E-1,2.643109486E-2
1.340377599E1,-3.147763610E-1,-2.136458009E-1,-7.323477184E-4
1.342363651E1,-3.019935489E-1,-2.168415040E-1,-3.115806542E-2
1.344351708E1,-2.908086181E-1,-2.093848735E-1,-4.607132822E-2
1.346342463E1,-2.662416697E-1,-2.253633589E-1,-5.086487532E-2
1.348331989E1,-2.374803871E-1,-2.632457018E-1,-4.713656008E-2
1.350322224E1,-2.145778835E-1,-2.962679267E-1,-4.021254554E-2
1.352309083E1,-1.980667710E-1,-3.037245572E-1,-2.956021577E-2
1.354297276E1,-1.831535101E-1,-2.877460718E-1,-2.583190054E-2
1.356287099E1,-1.623148769E-1,-2.765611112E-1,-2.263620123E-2
1.358276979E1,-1.394123733E-1,-2.675066292E-1,-3.382114694E-2
1.360265843E1,-1.266295761E-1,-2.664414048E-1,-4.447348043E-2
1.362255146E1,-1.149120107E-1,-2.616478503E-1,-3.967992961E-2
1.364245494E1,-1.069227681E-1,-2.227002829E-1,-4.394086078E-2
1.366235760E1,-9.840089828E-2,-1.822214276E-1,-5.512581021E-2
1.368225192E1,-8.874722570E-2,-1.784931123E-1,-6.897383928E-2
1.370214968E1,-8.288844675E-2,-1.971346885E-1,-8.708280325E-2
1.372203724E1,-6.904041767E-2,-2.147110254E-1,-9.134373069E-2
1.374189687E1,-5.039883777E-2,-2.077870220E-1,-8.282186836E-2
1.376180536E1,-4.773575440E-2,-1.880802065E-1,-8.335448056E-2
1.378169994E1,-4.880098626E-2,-1.838192791E-1,-7.430000603E-2
1.380157093E1,-4.773575440E-2,-1.875475943E-1,-6.204982474E-2
1.382146239E1,-3.814865649E-2,-1.966020763E-1,-5.885412544E-2
1.384135088E1,-1.844184659E-2,-2.083196342E-1,-4.447348043E-2
1.386126760E1,6.125089712E-3,-2.056565434E-1,-1.784265228E-2
1.388114562E1,3.648423031E-2,-1.880802065E-1,1.930734841E-3
1.390106062E1,8.335448056E-2,-1.832866520E-1,1.045259926E-2
1.392092536E1,1.404110342E-1,-2.221676558E-1,3.548557684E-2
1.394081682E1,1.985328048E-1,-2.680392563E-1,7.809489965E-2
1.396071557E1,2.581858635E-1,-2.797568142E-1,1.197055578E-1
1.398061005E1,3.258947134E-1,-2.850829959E-1,1.671084315E-1
1.400048291E1,3.877448142E-1,-3.410077095E-1,2.081864774E-1
1.402038343E1,4.111799598E-1,-4.135101438E-1,2.460022569E-1
1.404026474E1,3.920057416E-1,-4.140427709E-1,2.529262602E-1
1.406018442E1,3.711671233E-1,-3.575854003E-1,2.353499234E-1
1.408007932E1,3.840165138E-1,-2.999962568E-1,2.177735716E-1
1.409994104E1,4.223648906E-1,-2.584521770E-1,2.007298470E-1
1.411981880E1,4.548544884E-1,-2.482658774E-1,1.713693589E-1
1.413970869E1,4.778235853E-1,-2.824199200E-1,1.335535944E-1
1.415960073E1,4.953999221E-1,-2.930722237E-1,8.295502514E-2
1.417949010E1,5.012587309E-1,-2.227002829E-1,2.536586113E-2
1.419940630E1,5.065848827E-1,-1.331541240E-1,-1.304910425E-2
1.421927541E1,5.167046189E-1,-1.150451675E-1,-3.009283356E-2
1.423918739E1,5.199003220E-1,-1.459369212E-1,-3.169068322E-2
1.425905729E1,5.241612196E-1,-1.086537689E-1,-3.967992961E-2
1.427895135E1,5.470637083E-1,-3.129122080E-3,-4.873441160E-2
1.429884052E1,5.679023266E-1,7.736254483E-2,-4.713656008E-2
1.431873531E1,5.695002079E-1,3.848154470E-2,-4.660394415E-2
1.433863317E1,5.465311408E-1,-5.053199083E-2,-3.488638252E-2
1.435851583E1,5.167046189E-1,-4.726971500E-3,-3.488638252E-2
1.437841437E1,5.081827044E-1,1.381474137E-1,-4.873441160E-2
1.439832557E1,4.980630279E-1,2.095845938E-1,-4.926702753E-2
1.441823000E1,4.746278822E-1,1.567889899E-1,-4.766917601E-2
1.443812698E1,4.356803000E-1,8.002562821E-2,-5.512581021E-2
1.445800281E1,3.749620318E-1,7.043853402E-2,-6.790860742E-2
1.447785635E1,3.221664131E-1,1.376147866E-1,-7.589785010E-2
1.449777020E1,2.955355942E-1,2.159759998E-1,-7.057169080E-2
1.451765786E1,2.709686458E-1,2.287587970E-1,-6.950645149E-2
1.453755286E1,2.315550297E-1,1.812893450E-1,-8.495233208E-2
1.455744911E1,1.867486686E-1,1.599846780E-1,-1.153780520E-1
1.457734224E1,1.478676647E-1,2.101172209E-1,-1.515959799E-1
1.459723651E1,1.169759035E-1,2.857487500E-1,-1.894117445E-1
1.461713401E1,7.856093347E-2,3.294898868E-1,-2.225005478E-1
1.463701869E1,2.902759984E-2,3.278920352E-1,-2.411421239E-1
1.465691192E1,-8.322132751E-3,3.140439987E-1,-2.443378270E-1
1.467677604E1,-2.749632671E-2,3.033916950E-1,-2.336854935E-1
1.469668323E1,-3.495295718E-2,3.087178469E-1,-1.963357627E-1
1.471656635E1,-3.228987753E-2,3.571859598E-1,-1.707701683E-1
1.473645156E1,-3.015941009E-2,4.051880240E-1,-1.398784071E-1
1.475635765E1,-2.802894451E-2,4.270252883E-1,-1.019960642E-1
1.477624703E1,-2.270277962E-2,4.126446545E-1,-7.163692266E-2
1.479616270E1,-3.328853054E-4,3.816863000E-1,-3.328853101E-2
1.481603974E1,3.062544949E-2,4.035901725E-1,-1.797580742E-3
1.483592067E1,5.725627393E-2,4.675041437E-1,4.061201122E-3
1.485579208E1,6.790860742E-2,5.069843531E-1,-2.862813650E-3
1.487571739E1,6.684337556E-2,5.000603199E-1,-2.849498391E-2
1.489560869E1,6.524552405E-2,4.813521802E-1,-5.565842614E-2
1.491546599E1,6.950645149E-2,4.888753891E-1,-8.015878499E-2
1.493537437E1,6.471290439E-2,5.325499177E-1,-1.019960642E-1
1.495527078E1,5.406057462E-2,5.864107609E-1,-1.238999143E-1
1.497515708E1,5.512581021E-2,6.151720881E-1,-1.361500919E-1
1.499509791E1,5.725627393E-2,6.109111309E-1,-1.489328891E-1
1.501492406E1,5.193011090E-2,6.002588272E-1,-1.739658713E-1
1.503482281E1,3.967992961E-2,6.189003587E-1,-2.065220475E-1
1.505473463E1,3.754946589E-2,6.529878378E-1,-2.193048447E-1
1.507461448E1,4.660394415E-2,6.711633801E-1,-2.193048447E-1
1.509450942E1,4.340824485E-2,5.800193548E-1,-2.129134536E-1
1.511439854E1,3.115806542E-2,4.131772518E-1,-1.856834292E-1
1.513430713E1,9.853405878E-3,2.532591522E-1,-1.686397046E-1
1.515420140E1,-3.015941009E-2,1.039933711E-1,-1.654440016E-1
1.517409224E1,-7.969274372E-2,-2.603163198E-2,-1.468024254E-1
1.519395567E1,-1.314231306E-1,-1.113168523E-1,-1.137802005E-1
1.521384927E1,-1.879470497E-1,-1.646450758E-1,-7.696308941E-2
1.523374172E1,-2.422739416E-1,-2.392113954E-1,-3.701684624E-2
1.525362323E1,-2.945369184E-1,-3.533244729E-1,3.328853054E-4
1.527353026E1,-3.536573648E-1,-4.971975088E-1,3.548557684E-2
1.529341739E1,-4.245619476E-1,-6.197658777E-1,5.892070010E-2
1.531331974E1,-4.869446456E-1,-6.890726089E-1,9.094426781E-2
1.533318666E1,-5.210320950E-1,-7.205635905E-1,1.367492825E-1
1.535310823E1,-5.306192040E-1,-7.727599740E-1,1.772947162E-1
1.537298057E1,-5.524564981E-1,-8.623061180E-1,2.065886259E-1
1.539288401E1,-5.834147930E-1,-9.214931130E-1,2.252302021E-1
1.541277796E1,-5.988606811E-1,-9.038501978E-1,2.337520719E-1
1.543266489E1,-5.945997834E-1,-8.362079263E-1,2.358825356E-1
1.545254422E1,-5.850126743E-1,-7.482596040E-1,2.374803871E-1
1.547243453E1,-5.807517171E-1,-7.162360549E-1,2.321542203E-1
1.549232958E1,-5.786212683E-1,-8.052495718E-1,2.199040353E-1
1.551223755E1,-5.541208982E-1,-9.321454763E-1,2.017950863E-1
1.553214666E1,-5.220973492E-1,-9.598415494E-1,1.804904193E-1
1.555203323E1,-4.874772727E-1,-8.505885601E-1,1.601844132E-1
1.557188286E1,-4.448013604E-1,-7.109099030E-1,1.479342431E-1
1.559178187E1,-3.926049471E-1,-6.234942079E-1,1.463363916E-1
1.561167927E1,-3.334179223E-1,-5.553193092E-1,1.346188188E-1
1.563155172E1,-2.881455421E-1,-4.663057625E-1,1.159772426E-1
1.565143474E1,-2.598502934E-1,-3.762269914E-1,8.455286920E-2
1.567133052E1,-2.491979450E-1,-2.675066292E-1,3.708342463E-2
1.569122833E1,-2.609155178E-1,-1.342193633E-1,-2.529928461E-2
1.571112156E1,-2.833519876E-1,2.030600421E-2,-8.921326697E-2
1.573099354E1,-3.094501793E-1,1.796914935E-1,-1.579873711E-1
1.575091036E1,-3.264939189E-1,2.649767101E-1,-2.219679356E-1
1.577082156E1,-3.270265460E-1,2.330197245E-1,-2.672403455E-1
1.579071140E1,-3.232982159E-1,1.972678453E-1,-2.992638946E-1
1.581060099E1,-3.073197305E-1,2.729659677E-1,-3.184380829E-1
1.583047927E1,-2.641112208E-1,4.083836973E-1,-3.179054856E-1
1.585037567E1,-2.161757201E-1,4.957993925E-1,-3.029922247E-1
1.587027588E1,-1.537930220E-1,4.664389193E-1,-2.821536064E-1
1.589016203E1,-8.182321489E-2,3.774253726E-1,-2.549901605E-1
1.591006354E1,-8.322132751E-3,3.481314778E-1,-2.123808414E-1
1.592995744E1,6.950645149E-2,4.169055820E-1,-1.590526104E-1
1.594982474E1,1.569221467E-1,5.043212771E-1,-1.041931063E-1
1.596971786E1,2.411421239E-1,5.218976140E-1,-5.406057462E-2
1.598962296E1,3.136445582E-1,4.653736651E-1,-1.731003635E-2
1.600951619E1,3.808208108E-1,4.286231399E-1,1.311568171E-2
1.602937468E1,4.548544884E-1,4.818847775E-1,2.749632671E-2
1.604927520E1,5.199003220E-1,5.816172361E-1,3.122464381E-2
1.606917573E1,5.753589869E-1,6.471290588E-1,3.601819277E-2
1.608904531E1,6.259575486E-1,6.588466167E-1,2.110492997E-2
1.610896359E1,6.526549459E-1,6.412702799E-1,-1.198387146E-2
1.612882942E1,6.728943586E-1,6.359441280E-1,-4.873441160E-2
1.614874989E1,6.728943586E-1,6.556509137E-1,-7.962616533E-2
1.616863140E1,6.499252915E-1,6.786200404E-1,-9.826774895E-2
1.618851026E1,6.280879974E-1,6.956637502E-1,-1.180411354E-1
1.620843281E1,5.998593569E-1,7.063160539E-1,-1.191063672E-1
1.622828312E1,5.710980296E-1,7.190988660E-1,-9.826774895E-2
1.624821328E1,5.555856228E-1,7.521210909E-1,-7.110430300E-2
1.626810192E1,5.577826500E-1,8.224930763E-1,-5.139749497E-2
1.628796229E1,5.710980296E-1,8.816800714E-1,-4.181039706E-2
1.630785323E1,5.908048749E-1,8.854084015E-1,-4.460663069E-3
1.632773531E1,6.296858788E-1,8.843431473E-1,5.732285231E-2
1.634764734E1,6.856771708E-1,9.269524813E-1,8.828118443E-2
1.636755906E1,7.293517590E-1,9.557803273E-1,7.969274372E-2
1.638744599E1,7.309495807E-1,9.205610752E-1,6.424686313E-2
1.640733119E1,7.000578046E-1,8.421998620E-1,4.826837033E-2
1.642723640E1,6.467295885E-1,7.542515397E-1,2.110492997E-2
1.644711515E1,5.870765448E-1,6.839461923E-1,-9.254211560E-3
1.646700000E1,5.342809558E-1,6.402050257E-1,-4.127778113E-2
1.648691531E1,4.655734003E-1,6.290200949E-1,-6.684337556E-2
1.650679422E1,3.893426657E-1,6.242265701E-1,-7.802832127E-2
1.652668073E1,3.354818225E-1,5.714309216E-1,-8.655018359E-2
1.654657349E1,2.912746668E-1,4.456668794E-1,-9.240896255E-2
1.656645578E1,2.416747361E-1,2.996633649E-1,-8.761541545E-2
1.658633531E1,2.038589716E-1,2.170412242E-1,-5.725627393E-2
1.660623073E1,1.819551140E-1,1.978004575E-1,-1.358172111E-2
1.662615218E1,1.734332591E-1,1.717022508E-1,3.335510939E-2
1.664603307E1,1.734332591E-1,1.103847697E-1,8.455286920E-2
1.666589927E1,1.590526104E-1,4.434032366E-2,1.319557428E-1
1.668581307E1,1.350848675E-1,-2.063889056E-3,1.713693589E-1
1.670569552E1,1.127149686E-1,-1.644453406E-2,1.975341439E-1
1.672558078E1,1.047257185E-1,-3.508611396E-2,2.321542203E-1
1.674548724E1,1.100518852E-1,-9.480573982E-2,2.945369184E-1
1.676537390E1,1.143128201E-1,-1.678407788E-1,3.488638103E-1
1.678525208E1,8.122401685E-2,-2.179067284E-1,3.686372042E-1
1.680516437E1,2.157096937E-2,-2.760285139E-1,3.504616618E-1
1.682505786E1,-4.720313847E-2,-3.762269914E-1,3.009283245E-1
1.684491849E1,-1.436733007E-1,-4.886756539E-1,2.417413145E-1
1.686483880E1,-2.454696298E-1,-5.510583520E-1,1.863491982E-1
1.688471963E1,-3.302222490E-1,-5.611780882E-1,1.346188188E-1
1.690466135E1,-4.075182080E-1,-6.107113957E-1,9.733566642E-2
1.692450692E1,-4.869446456E-1,-7.103772759E-1,7.330134511E-2
1.694437708E1,-5.492607951E-1,-7.679664493E-1,6.690994650E-2
1.696427484E1,-5.834147930E-1,-7.551836371E-1,7.170350105E-2
1.698417802E1,-6.015237570E-1,-7.349442244E-1,9.467258304E-2
1.700407005E1,-6.031216383E-1,-7.381399274E-1,1.362166703E-1
1.702393218E1,-5.967302322E-1,-7.365420461E-1,1.649779677E-1
1.704382369E1,-5.882083774E-1,-7.365420461E-1,1.729672104E-1
1.706376156E1,-5.732951164E-1,-7.455965281E-1,1.681736708E-1
1.708361635E1,-5.631753802E-1,-7.333463430E-1,1.553908736E-1
1.710351130E1,-5.455324650E-1,-6.816160083E-1,1.436733007E-1
1.712340849E1,-5.194342732E-1,-6.416697502E-1,1.356840581E-1
1.714327635E1,-4.890751243E-1,-6.528546810E-1,1.319557428E-1
1.716319573E1,-4.549210668E-1,-6.677679420E-1,1.229012609E-1
1.718310281E1,-4.304207265E-1,-6.587134600E-1,1.079879999E-1
1.720296494E1,-4.155074656E-1,-6.464632750E-1,8.721595258E-2
1.722285328E1,-4.139096141E-1,-6.411371231E-1,7.702966034E-2
1.724278161E1,-4.080508351E-1,-6.218963265E-1,7.649704814E-2
1.726265057E1,-3.915397227E-1,-5.942003131E-1,8.668334037E-2
1.728253625E1,-3.856809437E-1,-5.803522468E-1,8.774857223E-2
1.730242286E1,-3.840830922E-1,-5.755587220E-1,7.063826174E-2
1.732232776E1,-3.803547621E-1,-5.505257249E-1,5.306192115E-2
1.734220854E1,-3.648423254E-1,-4.897408783E-1,4.187697172E-2
1.736212500E1,-3.493964374E-1,-4.113796651E-1,2.749632671E-2
1.738200130E1,-3.488638103E-1,-3.319532275E-1,-2.330197254E-3
1.740186974E1,-3.536573648E-1,-2.562551200E-1,-4.021254554E-2
1.742176750E1,-3.483312130E-1,-2.061891705E-1,-7.216953486E-2
1.744167140E1,-3.456681073E-1,-1.619154215E-1,-9.294158220E-2
1.746154234E1,-3.398093283E-1,-1.256974936E-1,-1.063235700E-1
1.748142333E1,-3.217003644E-1,-1.059906855E-1,-1.035939083E-1
1.750135401E1,-2.972000241E-1,-7.350108027E-2,-8.495233208E-2
1.752124734E1,-2.598502934E-1,-2.230331674E-2,-5.406057462E-2
1.754112411E1,-2.071212530E-1,1.977338828E-2,-1.890788600E-2
1.756103864E1,-1.564560980E-1,2.303566411E-2,1.045259926E-2
1.758090885E1,-1.015966013E-1,1.125152409E-2,3.868127242E-2
1.760079114E1,-4.240959138E-2,1.764292270E-2,6.371425092E-2
1.762071015E1,1.677742042E-2,5.126433820E-2,7.756228000E-2
1.764055708E1,6.471290439E-2,8.162347972E-2,9.254211932E-2
1.766044349E1,1.121823564E-1,9.813459218E-2,1.037270650E-1
1.768036630E1,1.654440016E-1,9.227581322E-2,1.095858440E-1
1.770025687E1,2.198374718E-1,9.014534205E-2,1.031944528E-1
1.772013890E1,2.491313666E-1,1.130478531E-1,8.348763734E-2
1.774002932E1,2.688381970E-1,1.631803811E-1,6.584471464E-2
1.775993880E1,2.960681915E-1,2.218347788E-1,5.359453708E-2
1.777982536E1,3.269599676E-1,2.489982247E-1,5.039883777E-2
1.779971073E1,3.599821925E-1,2.713681161E-1,5.998593569E-2
1.781961276E1,3.946688473E-1,3.358812928E-1,5.412715301E-2
1.783946739E1,4.191691875E-1,3.891429305E-1,3.442034125E-2
1.785937432E1,4.324845970E-1,3.827515543E-1,1.258306485E-2
1.787928422E1,4.505935609E-1,3.497293293E-1,-9.254211560E-3
1.789915890E1,4.703669548E-1,3.539902568E-1,-2.263620123E-2
1.791908791E1,4.890085459E-1,4.110468030E-1,-3.488638252E-2
1.793892896E1,5.033891797E-1,4.754934013E-1,-3.861469775E-2
1.795882343E1,5.113784075E-1,5.069843531E-1,-4.500609636E-2
1.797874484E1,4.975304008E-1,4.942015409E-1,-6.098458916E-2
1.799861989E1,4.708995819E-1,4.749607742E-1,-7.962616533E-2
1.801849937E1,4.537892640E-1,4.824174047E-1,-9.400681406E-2
1.803839958E1,4.372781515E-1,5.037886500E-1,-9.880036116E-2
1.805827833E1,4.138430357E-1,5.304194689E-1,-9.773512930E-2
1.807819088E1,3.946688473E-1,5.330825448E-1,-9.826774895E-2
1.809811146E1,3.808208108E-1,4.760259986E-1,-9.081111848E-2
1.811796390E1,3.642431200E-1,4.003944695E-1,-8.228924870E-2
1.813783109E1,3.498624861E-1,3.593164086E-1,-6.737598777E-2
1.815774479E1,3.306882679E-1,3.534576297E-1,-5.139749497E-2
1.817761750E1,3.024595976E-1,3.204354048E-1,-4.500609636E-2
1.819753265E1,2.736317217E-1,2.484655976E-1,-3.861469775E-2
1.821740208E1,2.358159572E-1,1.834198087E-1,-4.074516147E-2
1.823729010E1,1.900109351E-1,1.541258991E-1,-4.713656008E-2
1.825720781E1,1.473350376E-1,1.280276924E-1,-6.258244067E-2
1.827708062E1,1.089866534E-1,6.351451576E-2,-7.696308941E-2
1.829698359E1,7.802832127E-2,-1.750976779E-2,-8.921326697E-2
1.831688515E1,4.660394415E-2,-7.722939551E-2,-1.003982127E-1
1.833675099E1,6.125089712E-3,-1.054580659E-1,-1.137802005E-1
1.835664843E1,-4.347482324E-2,-1.379476786E-1,-1.143128201E-1
1.837654578E1,-8.661676198E-2,-2.019282281E-1,-9.880036116E-2
1.839645099E1,-1.303578913E-1,-2.893439233E-1,-7.802832127E-2
1.841634442E1,-1.788259894E-1,-3.794226944E-1,-5.352795869E-2
1.843623536E1,-2.305563688E-1,-4.188362956E-1,-3.328853101E-2
1.845614932E1,-2.790910602E-1,-3.906076252E-1,-2.956021577E-2
1.847607458E1,-3.222329915E-1,-3.597158790E-1,-4.074516147E-2
1.849589291E1,-3.632444739E-1,-4.199015498E-1,-4.979964346E-2
1.851580890E1,-4.000615776E-1,-5.521236062E-1,-5.778888986E-2
1.853565791E1,-4.304207265E-1,-6.571156383E-1,-6.204982474E-2
1.855558599E1,-4.597146213E-1,-6.789528728E-1,-6.098458916E-2
1.857544890E1,-4.928034246E-1,-6.517894268E-1,-4.979964346E-2
1.859536588E1,-5.157059431E-1,-6.491263509E-1,-3.115806542E-2
1.861523015E1,-5.306192040E-1,-7.125077248E-1,-1.677742042E-2
1.863515609E1,-5.487281680E-1,-7.951298952E-1,-9.786828421E-3
1.865510411E1,-5.594470501E-1,-8.266208172E-1,-6.591129117E-3
1.867493015E1,-5.642406344E-1,-8.138380051E-1,-8.721595630E-3
1.869481458E1,-5.669037104E-1,-7.956624627E-1,-7.656362373E-3
1.871469573E1,-5.562513471E-1,-7.834123373E-1,-7.323477184E-4
1.873459771E1,-5.284887552E-1,-7.786187530E-1,4.061201122E-3
1.875447552E1,-5.050535798E-1,-7.764883041E-1,-4.993279930E-3
1.877435796E1,-4.683030546E-1,-7.487922311E-1,-1.411433797E-2
1.879426099E1,-4.405404329E-1,-6.896052361E-1,-2.263620123E-2
1.881419531E1,-4.261597991E-1,-6.342130899E-1,-3.754946589E-2
1.883408646E1,-4.160400629E-1,-5.899393559E-1,-2.796236612E-2
1.885392442E1,-3.942027986E-1,-4.849473238E-1,-1.997311972E-2
1.887381312E1,-3.600487709E-1,-3.511940241E-1,-1.251648832E-2
1.889373203E1,-3.344831765E-1,-2.487984896E-1,-3.395430278E-3
1.891360104E1,-3.094501793E-1,-1.822214276E-1,-6.058512721E-3
1.893349302E1,-2.790910602E-1,-1.059906855E-1,-2.103835158E-2
1.895340776E1,-2.337520719E-1,-2.017285116E-2,-3.754946589E-2
1.897330046E1,-1.729672104E-1,6.351451576E-2,-4.074516147E-2
1.899320036E1,-1.079879999E-1,1.733001024E-1,-4.074516147E-2
1.901306869E1,-4.400743917E-2,2.985981405E-1,-3.808208182E-2
1.903294729E1,3.328853101E-2,3.966661394E-1,-2.583190054E-2
1.905285062E1,1.063235700E-1,4.392754734E-1,-8.188978769E-3
1.907276823E1,1.345522404E-1,4.595148861E-1,-6.058512721E-3
1.909263562E1,1.404110342E-1,5.096474290E-1,-1.411433797E-2
1.911253005E1,1.601178348E-1,5.629090667E-1,-7.656362373E-3
1.913242338E1,1.910761744E-1,5.677026510E-1,1.631138101E-2
1.915232380E1,2.203700840E-1,5.426696539E-1,4.240959138E-2
1.917221901E1,2.448704392E-1,5.165714622E-1,6.584471464E-2
1.919211260E1,2.715012729E-1,4.894079864E-1,9.360735118E-2
1.921200625E1,2.987312973E-1,4.899406135E-1,1.122489274E-1
1.923186630E1,3.248294890E-1,5.059190989E-1,1.175750941E-1
1.925178177E1,3.583843410E-1,4.712324440E-1,1.287600398E-1
1.927164104E1,3.888100684E-1,3.940030634E-1,1.335535944E-1
1.929154989E1,4.138430357E-1,3.428052962E-1,1.234338731E-1
1.931144078E1,4.340824485E-1,3.412074447E-1,1.138467789E-1
1.933131333E1,4.431369305E-1,3.651751876E-1,1.069227681E-1
1.935122182E1,4.495283365E-1,3.859472275E-1,9.946613014E-2
1.937113437E1,4.666386545E-1,3.961335421E-1,8.721595258E-2
1.939102036E1,4.799540639E-1,3.843493760E-1,6.264901906E-2
1.941087948E1,4.900737703E-1,3.555881083E-1,4.134435579E-2
1.943080703E1,5.044544339E-1,3.417400718E-1,2.483324520E-2
1.945069078E1,5.183024406E-1,3.539902568E-1,2.110492997E-2
1.947055260E1,5.332157016E-1,3.694361150E-1,1.790923066E-2
1.949047635E1,5.417375565E-1,3.390769958E-1,2.110492997E-2
1.951035635E1,5.337483287E-1,2.761616707E-1,3.228987753E-2
1.953023802E1,5.119110346E-1,2.431394309E-1,5.252930522E-2
1.955015031E1,4.932694733E-1,2.676397860E-1,8.242240548E-2
1.957004411E1,4.799540639E-1,2.974663079E-1,1.063901484E-1
1.958991604E1,4.601806700E-1,2.724333405E-1,1.181077138E-1
1.960981526E1,4.287562966E-1,2.127802968E-1,1.133141592E-1
1.962968062E1,3.760272563E-1,1.967352182E-1,8.615072072E-2
1.964960422E1,2.971334457E-1,2.223673910E-1,4.560529068E-2
1.966947802E1,2.155765295E-1,2.292914093E-1,9.387366474E-3
1.968935406E1,1.340196282E-1,2.052570879E-1,-1.784265228E-2
1.970924828E1,5.778888986E-2,1.738327146E-1,-3.222329915E-2
1.972916286E1,-6.191667169E-3,1.637129933E-1,-3.967992961E-2
1.974904547E1,-5.146406963E-2,1.727674752E-1,-4.021254554E-2
1.976893229E1,-7.223611325E-2,1.791588813E-1,-3.967992961E-2
1.978884474E1,-8.075797558E-2,1.466692686E-1,-4.181039706E-2
1.980873442E1,-8.874722570E-2,7.203638554E-2,-4.234301299E-2
1.982862422E1,-9.627043456E-2,1.391460653E-2,-3.275591508E-2
1.984850974E1,-9.733566642E-2,1.071890723E-2,-1.251648832E-2
1.986837948E1,-9.946613014E-2,2.516612969E-2,1.045259926E-2
1.988829203E1,-9.467258304E-2,1.664426643E-3,4.560529068E-2
1.990817875E1,-8.501891047E-2,-4.733629152E-2,7.916013151E-2
1.992809640E1,-8.129059523E-2,-9.853405505E-2,9.520520270E-2
1.994796276E1,-7.489919662E-2,-1.549914032E-1,1.101184636E-1
1.996783979E1,-7.969274372E-2,-1.981999129E-1,1.276948154E-1
1.998773744E1,-8.981245756E-2,-2.205698192E-1,1.468690038E-1
2.000761812E1,-9.999874979E-2,-2.477332503E-1,1.708367467E-1
2.002753963E1,-1.101184636E-1,-2.973331809E-1,1.980667710E-1
2.004742968E1,-1.282274276E-1,-3.687703609E-1,2.342846841E-1
2.006732343E1,-1.442059278E-1,-4.513925016E-1,2.711018026E-1
2.008718156E1,-1.601844132E-1,-5.457322001E-1,2.993304729E-1
2.010709958E1,-1.996646076E-1,-6.640396118E-1,3.547225893E-1
2.012696281E1,-2.678395212E-1,-7.748904228E-1,4.320185781E-1
2.014684807E1,-3.440702558E-1,-8.388710022E-1,4.928034246E-1
2.016674562E1,-4.426709116E-1,-8.724258542E-1,5.071840882E-1
2.018663010E1,-5.562513471E-1,-8.804150820E-1,4.858794212E-1
2.020652281E1,-6.958634853E-1,-8.532516360E-1,3.984637260E-1
2.022641427E1,-8.525858521E-1,-8.388710022E-1,2.902759910E-1
2.024630375E1,-9.842087626E-1,-8.410014510E-1,1.911427528E-1
2.026621130E1,-1.064167738E0,-8.282186985E-1,1.319557428E-1
2.028612078E1,-1.103581429E0,-7.732926011E-1,1.005313694E-1
2.030598099E1,-1.099853039E0,-6.901378632E-1,9.946613014E-2
2.032587953E1,-1.058308959E0,-5.979285836E-1,1.282274276E-1
2.034576729E1,-9.884696603E-1,-4.993279874E-1,1.724345982E-1
2.036568708E1,-8.840102553E-1,-3.996621072E-1,2.161757201E-1
2.038554458E1,-7.657027841E-1,-3.154421151E-1,2.502631843E-1
2.040546526E1,-6.457974911E-1,-2.514615655E-1,2.758953571E-1
2.042536015E1,-5.141080618E-1,-2.003303915E-1,2.860150635E-1
2.044525140E1,-3.637770712E-1,-1.517957002E-1,3.105154335E-1
2.046511989E1,-1.970015317E-1,-8.468602598E-2,3.493964374E-1
2.048509062E1,-3.548557684E-2,2.090519853E-2,3.573856652E-1
2.050492661E1,1.047257185E-1,1.461366564E-1,3.185046613E-1
2.052481828E1,2.251636237E-1,2.474003732E-1,2.417413145E-1
2.054467635E1,3.333513737E-1,3.475988507E-1,1.495320797E-1
2.056460192E1,4.596480429E-1,4.691019952E-1,2.217016183E-2
2.058447468E1,5.982614756E-1,5.703657269E-1,-1.452045739E-1
2.060439442E1,7.240255475E-1,6.226286888E-1,-3.503950834E-1
2.062429646E1,8.141043186E-1,5.991935730E-1,-5.609117746E-1
2.064414448E1,8.807479739E-1,5.133757591E-1,-7.288191319E-1
2.066408067E1,9.670984149E-1,4.408733249E-1,-8.386046886E-1
2.068394380E1,1.023089767E0,3.859472275E-1,-9.244225621E-1
2.070385297E1,9.974575639E-1,3.364138901E-1,-9.761528969E-1
2.072371573E1,9.073787928E-1,3.167071044E-1,-1.020360112E0
2.074361494E1,8.007889390E-1,2.969337106E-1,-1.077949286E0
2.076351036E1,6.787531376E-1,2.484655976E-1,-1.114167213E0
2.078338989E1,5.657718778E-1,2.085193694E-1,-1.124353409E0
2.080329151E1,4.756931365E-1,1.882133633E-1,-1.108840942E0
2.082317411E1,4.138430357E-1,1.573216021E-1,-1.067829490E0
2.084308484E1,3.674388230E-1,9.653674066E-2,-9.697614908E-1
2.086295734E1,3.418732285E-1,5.286218971E-2,-8.199630976E-1
2.088285484E1,3.258947134E-1,5.179695413E-2,-6.707639098E-1
2.090273828E1,2.928725183E-1,8.109086752E-2,-5.188350677E-1
2.092263989E1,2.336854935E-1,1.216362938E-1,-3.840165138E-1
2.094252817E1,1.563895196E-1,1.248319969E-1,-2.757622004E-1
2.096240271E1,7.323476672E-2,9.121058136E-2,-1.840855777E-1
2.098231922E1,7.323477184E-4,9.067796171E-2,-1.207042187E-1
2.100219833E1,-4.826837033E-2,1.381474137E-1,-8.441971987E-2
2.102212625E1,-7.756228000E-2,1.754305661E-1,-6.737598777E-2
2.104198646E1,-1.026618332E-1,1.807567328E-1,-4.926702753E-2
2.106186416E1,-1.106510833E-1,1.962026060E-1,-2.370143496E-2
2.108177203E1,-9.147688746E-2,2.255630940E-1,5.126433913E-3
2.110162953E1,-5.892070010E-2,2.287587970E-1,4.081173986E-2
2.112154599E1,-3.974650800E-2,2.127802968E-1,9.520520270E-2
2.114142198E1,-2.003969625E-2,2.041918486E-1,1.452711523E-1
2.116130114E1,-6.724283565E-3,1.988656968E-1,1.927406043E-1
2.118122817E1,-1.258306485E-2,2.009961605E-1,2.582524419E-1
2.120111307E1,-2.430062927E-2,2.165086120E-1,3.232982159E-1
2.122100942E1,-3.868127242E-2,2.181064636E-1,3.819526136E-1
2.124089994E1,-4.667052254E-2,1.914090663E-1,4.309533238E-1
2.126078026E1,-5.945331976E-2,1.722348630E-1,4.539224207E-1
2.128065406E1,-9.413997084E-2,1.823545843E-1,4.651073813E-1
2.130056411E1,-1.314231306E-1,2.031266242E-1,4.768249393E-1
2.132046427E1,-1.484668553E-1,2.159759998E-1,4.864120185E-1
2.134034781E1,-1.665758193E-1,2.202369273E-1,4.896077216E-1
2.136021718E1,-1.916753650E-1,2.335523367E-1,4.773575366E-1
2.138014474E1,-2.230997384E-1,2.628462613E-1,4.603138268E-1
2.140003953E1,-2.534588873E-1,2.852161527E-1,4.325511754E-1
2.141991755E1,-2.630459666E-1,2.942706347E-1,4.059203565E-1
2.143980682E1,-2.619807422E-1,3.103156984E-1,3.856809437E-1
2.145969281E1,-2.545241117E-1,3.321529627E-1,3.617132008E-1
2.147956823E1,-2.380129993E-1,3.673056662E-1,3.334179223E-1
2.149947817E1,-2.300237566E-1,4.051880240E-1,3.003957272E-1
2.151934000E1,-2.316216081E-1,4.328840673E-1,2.609155178E-1
2.153926573E1,-2.215018868E-1,4.275579154E-1,2.199040353E-1
2.155914744E1,-2.172409594E-1,4.174381793E-1,1.826208830E-1
2.157904182E1,-2.092517167E-1,4.334166944E-1,1.367492825E-1
2.159893031E1,-1.985993832E-1,4.504604042E-1,8.828118443E-2
2.161882000E1,-1.900775135E-1,4.376776218E-1,4.400743917E-2
2.163871520E1,-1.676410437E-1,3.998618424E-1,9.387366474E-3
2.165861224E1,-1.388797611E-1,3.694361150E-1,-2.902759984E-2
2.167850703E1,-1.159772426E-1,3.348160684E-1,-6.684337556E-2
2.169836505E1,-9.786828607E-2,2.900096774E-1,-8.921326697E-2
2.171827125E1,-7.756228000E-2,2.564548552E-1,-1.057909578E-1
2.173818099E1,-4.294220731E-2,2.324871123E-1,-1.116497368E-1
2.175810343E1,-1.418091450E-2,1.983330697E-1,-1.159106717E-1
2.177796557E1,9.853405878E-3,1.093195379E-1,-1.201715991E-1
2.179785823E1,4.979964346E-2,-1.531272428E-3,-1.180411354E-1
2.181774343E1,8.282186836E-2,-8.095771074E-2,-1.297587007E-1
2.183760474E1,1.009974033E-1,-1.608501822E-1,-1.478676647E-1
2.185749369E1,1.169759035E-1,-2.493311018E-1,-1.617156863E-1
2.187739916E1,1.276282370E-1,-3.250292242E-1,-1.931400597E-1
2.189731172E1,1.233673021E-1,-3.751617670E-1,-2.384790480E-1
2.191719010E1,1.020626426E-1,-4.044556618E-1,-2.832188308E-1
2.193709797E1,8.069140464E-2,-4.540555775E-1,-3.248294890E-1
2.195695463E1,7.430000603E-2,-5.420038700E-1,-3.477320075E-1
2.197687182E1,7.696308941E-2,-6.294195652E-1,-3.503950834E-1
2.199676536E1,7.696308941E-2,-6.826812029E-1,-3.514603078E-1
2.201665922E1,7.749570161E-2,-7.018554211E-1,-3.690366745E-1
2.203651864E1,7.376738638E-2,-7.151708007E-1,-3.978645205E-1
2.205644026E1,4.926702753E-2,-7.503901124E-1,-4.090494812E-1
2.207632906E1,3.009283356E-2,-7.903363109E-1,-4.127778113E-1
2.209622463E1,1.997311972E-2,-8.298165202E-1,-4.021254778E-1
2.211610833E1,8.788172156E-3,-8.553821445E-1,-3.754280508E-1
2.213597687E1,-7.256899960E-3,-8.404688835E-1,-3.397427499E-1
2.215587869E1,-2.003969625E-2,-7.706295252E-1,-2.869471312E-1
2.217576672E1,-2.536586113E-2,-6.890726089E-1,-2.294245660E-1
2.219566343E1,-3.495295718E-2,-6.496589780E-1,-1.707701683E-1
2.221555807E1,-4.826837033E-2,-6.624417901E-1,-1.137802005E-1
2.223542396E1,-4.826837033E-2,-6.704310179E-1,-4.873441160E-2
2.225532989E1,-4.081173986E-2,-6.272891164E-1,1.577876508E-2
2.227521052E1,-4.667052254E-2,-5.414712429E-1,6.371425092E-2
2.229516448E1,-5.679023638E-2,-4.204341471E-1,8.561810106E-2
2.231499536E1,-7.117088139E-2,-3.069202602E-1,8.075797558E-2
2.233487828E1,-1.154446304E-1,-2.312221378E-1,5.412715301E-2
2.235479734E1,-1.750976741E-1,-1.657103151E-1,1.684399694E-2
2.237471541E1,-2.364151478E-1,-9.107742459E-2,-8.721595630E-3
2.239458422E1,-2.940043211E-1,-2.656424791E-2,-4.993279930E-3
2.241445062E1,-3.430050313E-1,3.635107726E-2,2.217016183E-2
2.243434880E1,-4.005942047E-1,1.109173894E-1,5.306192115E-2
2.245427833E1,-4.597146213E-1,1.780936420E-1,9.360735118E-2
2.247416713E1,-4.986622036E-1,2.223673910E-1,1.474016160E-1
2.249408010E1,-5.268908739E-1,2.271609455E-1,1.863491982E-1
2.251392302E1,-5.589144230E-1,1.898112148E-1,2.241649777E-1
2.253381770E1,-5.818169713E-1,1.408104897E-1,2.609155178E-1
2.255369546E1,-5.940671563E-1,1.264298409E-1,2.865476906E-1
2.257358489E1,-5.956649780E-1,1.397452503E-1,3.105154335E-1
2.259348213E1,-5.823495984E-1,1.461366564E-1,3.323526978E-1
2.261338130E1,-5.551861525E-1,1.461366564E-1,3.525921404E-1
2.263328484E1,-5.141080618E-1,1.376147866E-1,3.617132008E-1
2.265317317E1,-4.597146213E-1,9.280842543E-2,3.686372042E-1
2.267305531E1,-3.989963531E-1,4.327509180E-2,3.734307587E-1
2.269294510E1,-3.483312130E-1,3.475322574E-2,3.579182923E-1
2.271284698E1,-2.993304729E-1,4.274247587E-2,3.462007344E-1
2.273270411E1,-2.470674813E-1,5.605788901E-2,3.430050313E-1
2.275261802E1,-2.177735716E-1,7.203638554E-2,3.339505494E-1
2.277251213E1,-1.943384558E-1,9.067796171E-2,3.328853250E-1
2.279243005E1,-1.548582464E-1,1.168427467E-1,3.334179223E-1
2.281229015E1,-1.165098622E-1,1.381474137E-1,3.243634701E-1
2.283221484E1,-8.448629081E-2,1.557237506E-1,3.078523576E-1
2.285213656E1,-5.039883777E-2,1.962026060E-1,2.961347699E-1
2.287194922E1,-1.151783206E-2,2.537917793E-1,2.812215090E-1
2.289187234E1,2.050573565E-2,3.044569194E-1,2.497305721E-1
2.291173854E1,4.979964346E-2,3.225658834E-1,2.172409594E-1
2.293165172E1,8.814803511E-2,3.230984807E-1,1.932732165E-1
2.295151401E1,1.265629977E-1,3.353486657E-1,1.612496525E-1
2.297141916E1,1.606504619E-1,3.449357748E-1,1.287600398E-1
2.299132505E1,1.937392503E-1,3.742296696E-1,1.010639817E-1
2.301121057E1,2.256962508E-1,4.259600639E-1,6.318163127E-2
2.303110297E1,2.555227578E-1,4.472647011E-1,2.323539555E-2
2.305098083E1,2.784252763E-1,4.398080707E-1,-4.993279930E-3
2.307089265E1,2.981986701E-1,4.318188429E-1,-2.902759984E-2
2.309076484E1,3.280251920E-1,4.046553969E-1,-4.926702753E-2
2.311064359E1,3.631778955E-1,3.731644452E-1,-6.151720881E-2
2.313057026E1,4.058537781E-1,3.641099632E-1,-7.589785010E-2
2.315044859E1,4.394086301E-1,3.726318181E-1,-9.826774895E-2
2.317034672E1,4.559197426E-1,3.736970723E-1,-1.169759035E-1
2.319023432E1,4.740952849E-1,3.651751876E-1,-1.340196282E-1
2.321014614E1,5.071175098E-1,3.465336263E-1,-1.430741102E-1
2.323004192E1,5.364114046E-1,3.268268108E-1,-1.366827190E-1
2.324990984E1,5.641740561E-1,3.177723289E-1,-1.281608492E-1
2.326978937E1,5.822830200E-1,3.326855898E-1,-1.345522404E-1
2.328966593E1,5.769568086E-1,3.465336263E-1,-1.478676647E-1
2.330957994E1,5.812177658E-1,3.278920352E-1,-1.638461500E-1
2.332946000E1,6.216966510E-1,2.703028917E-1,-1.718354076E-1
2.334935208E1,6.771553159E-1,1.685065478E-1,-1.702375561E-1
2.336923885E1,6.968621016E-1,8.055824786E-2,-1.665092409E-1
2.338913198E1,6.888728738E-1,1.039933711E-1,-1.830203533E-1
2.340903828E1,6.947316527E-1,1.876807362E-1,-2.049241960E-1
2.342891552E1,7.298843265E-1,1.908764392E-1,-2.033263594E-1
2.344881036E1,7.443315983E-1,8.801487833E-2,-1.969349533E-1
2.346870838E1,7.107101679E-1,-3.242303059E-2,-1.947379112E-1
2.348860942E1,6.477948427E-1,-6.917356700E-2,-1.830203533E-1
2.350847406E1,5.865439177E-1,-3.561872989E-2,-1.489328891E-1
2.352835776E1,5.284221768E-1,9.653674439E-3,-1.052583382E-1
2.354827453E1,4.677038789E-1,9.121057577E-3,-6.684337556E-2
2.356819906E1,3.930709958E-1,-5.532554165E-2,-2.956021577E-2
2.358807916E1,3.125793040E-1,-1.209039465E-1,2.995967865E-3
2.360792739E1,2.379464209E-1,-1.304910481E-1,2.536586113E-2
2.362784224E1,1.702375561E-1,-1.001319066E-1,4.986622185E-2
2.364771468E1,1.079214215E-1,-6.651048362E-2,5.732285231E-2
2.366762557E1,5.459319428E-2,-4.201012850E-2,5.039883777E-2
2.368750604E1,2.396774245E-3,-1.910761744E-2,2.430062927E-2
2.370739093E1,-4.826837033E-2,-5.259587895E-3,-2.050573565E-2
2.372730281E1,-9.627043456E-2,9.653674439E-3,-6.577813625E-2
2.374716468E1,-1.319557428E-1,5.126433820E-2,-1.025286764E-1
2.376708213E1,-1.521951705E-1,1.066564545E-1,-1.127149686E-1
2.378695260E1,-1.537930220E-1,1.535932869E-1,-1.116497368E-1
2.380683916E1,-1.458037645E-1,1.647782326E-1,-1.073888019E-1
2.382676078E1,-1.458037645E-1,1.445388049E-1,-1.057909578E-1
2.384664963E1,-1.585865617E-1,9.866721183E-2,-1.068561897E-1
2.386651823E1,-1.719019860E-1,6.937330216E-2,-9.880036116E-2
2.388640479E1,-1.863491982E-1,8.375394344E-2,-8.175663650E-2
2.390630953E1,-1.932732165E-1,1.109173894E-1,-4.820179567E-2
2.392621328E1,-1.938058287E-1,1.045259908E-1,-1.304910425E-2
2.394614776E1,-1.964689195E-1,5.925358832E-2,2.463351469E-3
2.396596182E1,-2.033929378E-1,1.338198967E-2,6.191667169E-3
2.398586187E1,-2.012624592E-1,-1.324883569E-2,1.844184659E-2
2.400578119E1,-1.911427528E-1,-2.123808302E-2,4.933360592E-2
2.402566672E1,-1.708367467E-1,-2.177070081E-2,8.668334037E-2
2.404553250E1,-1.479342431E-1,-3.561872989E-2,1.234338731E-1
2.406541718E1,-1.324883550E-1,-8.255556226E-2,1.479342431E-1
2.408530989E1,-1.303578913E-1,-1.390129030E-1,1.692388952E-1
2.410523651E1,-1.276948154E-1,-1.501978636E-1,1.890122890E-1
2.412512515E1,-1.255643368E-1,-1.283605844E-1,2.039255500E-1
2.414499474E1,-1.308905035E-1,-1.182408631E-1,2.167083472E-1
2.416488422E1,-1.234338731E-1,-1.161103994E-1,2.193714231E-1
2.418479713E1,-1.175750941E-1,-1.187734827E-1,2.092517167E-1
2.420466380E1,-1.127815470E-1,-1.145125479E-1,1.884796619E-1
2.422454802E1,-1.026618332E-1,-1.054580659E-1,1.569887102E-1
2.424446823E1,-9.999874979E-2,-1.134473160E-1,1.239664927E-1
2.426433239E1,-1.053249165E-1,-1.203713343E-1,9.520520270E-2
2.428423177E1,-1.069227681E-1,-1.118494645E-1,7.702966034E-2
2.430419130E1,-1.090532318E-1,-9.853405505E-2,6.477948278E-2
2.432399453E1,-1.170424819E-1,-9.587097168E-2,5.252930522E-2
2.434390557E1,-1.260969639E-1,-1.139799356E-1,4.773575440E-2
2.436381651E1,-1.303578913E-1,-1.347519755E-1,6.424686313E-2
2.438373906E1,-1.372819096E-1,-1.230344176E-1,8.022536337E-2
2.440359489E1,-1.458037645E-1,-7.776200771E-2,8.402025700E-2
2.442347041E1,-1.596518010E-1,-3.242303059E-2,8.022536337E-2
2.444338369E1,-1.734998226E-1,-3.029256500E-2,7.276873291E-2
2.446328067E1,-1.836861223E-1,-5.692338943E-2,6.744256616E-2
2.448315192E1,-1.895449013E-1,-7.776200771E-2,6.371425092E-2
2.450305104E1,-1.927406043E-1,-7.989247888E-2,6.424686313E-2
2.452292411E1,-1.991319954E-1,-4.520582780E-2,6.957302988E-2
2.454284005E1,-2.108495682E-1,6.657706399E-5,6.850779802E-2
2.456273369E1,-2.087190896E-1,-6.324821152E-3,5.785546824E-2
2.458259781E1,-2.092517167E-1,-7.722939551E-2,4.454005510E-2
2.460252687E1,-2.300237566E-1,-1.512630880E-1,4.081173986E-2
2.462238208E1,-2.593176663E-1,-1.779604852E-1,4.773575440E-2
2.464230609E1,-2.876129150E-1,-1.640458852E-1,6.850779802E-2
2.466220088E1,-3.153089881E-1,-1.448716968E-1,8.828118443E-2
2.468209140E1,-3.408745527E-1,-1.613828093E-1,9.786828607E-2
2.470197922E1,-3.702350557E-1,-1.907432824E-1,8.881380409E-2
2.472186609E1,-3.984637260E-1,-1.992651522E-1,6.371425092E-2
2.474177505E1,-4.112465382E-1,-2.029934675E-1,3.069202602E-2
2.476164500E1,-4.234966934E-1,-2.051239312E-1,5.126433913E-3
2.478151083E1,-4.197683930E-1,-2.029934675E-1,-7.656362373E-3
2.480139468E1,-4.101812840E-1,-2.099174857E-1,-8.721595630E-3
2.482130119E1,-4.075182080E-1,-2.328199893E-1,-9.254211560E-3
2.484117937E1,-4.075182080E-1,-2.503963411E-1,-4.993279930E-3
2.486112021E1,-4.155074656E-1,-2.551898956E-1,-4.460663069E-3
2.488099182E1,-4.250945449E-1,-2.728328109E-1,-1.264964230E-3
2.490088046E1,-4.325511754E-1,-2.946700752E-1,2.057231218E-2
2.492078515E1,-4.288228750E-1,-2.941374779E-1,5.359453708E-2
2.494065703E1,-4.192357659E-1,-2.797568142E-1,8.135717362E-2
2.496053770E1,-4.160400629E-1,-2.786915898E-1,9.147688746E-2
2.498042172E1,-4.203009903E-1,-2.989310026E-1,8.881380409E-2
2.500031057E1,-4.213662446E-1,-3.047898114E-1,8.934641629E-2
2.502021646E1,-4.075182080E-1,-2.754958868E-1,8.508548886E-2
2.504014250E1,-3.867461681E-1,-2.482658774E-1,6.957302988E-2
2.506004046E1,-3.734307587E-1,-2.392113954E-1,5.199668556E-2
2.507989765E1,-3.557878435E-1,-2.306895256E-1,4.454005510E-2
2.509980630E1,-3.318201005E-1,-2.061891705E-1,4.667052254E-2
2.511968297E1,-2.934716940E-1,-1.683733910E-1,5.892070010E-2
2.513956698E1,-2.342846841E-1,-1.459369212E-1,6.531210244E-2
2.515947979E1,-1.798912287E-1,-1.549914032E-1,6.744256616E-2
2.517936005E1,-1.346188188E-1,-1.683733910E-1,6.904041767E-2
2.519923520E1,-9.627043456E-2,-1.448716968E-1,5.465976894E-2
2.521912661E1,-7.383396477E-2,-1.049254537E-1,2.536586113E-2
2.523903640E1,-5.945331976E-2,-8.947957307E-2,2.995967865E-3
2.525890166E1,-3.548557684E-2,-9.214265645E-2,-9.254211560E-3
2.527881849E1,-4.593817517E-3,-7.776200771E-2,-1.890788600E-2
2.529869046E1,2.742975019E-2,-3.455349803E-2,-2.636451647E-2
2.531860630E1,7.483261824E-2,2.410089783E-2,-2.796236612E-2
2.533848911E1,1.276282370E-1,6.830807030E-2,-4.660394415E-2
2.535838224E1,1.665092409E-1,7.523208112E-2,-7.536523789E-2
2.537826234E1,2.059894353E-1,8.268871158E-2,-1.100518852E-1
2.539818166E1,2.432725877E-1,1.248319969E-1,-1.526612043E-1
2.541808448E1,2.832854092E-1,1.695717871E-1,-1.915422082E-1
2.543794817E1,3.226990402E-1,2.020613849E-1,-2.225005478E-1
2.545784104E1,3.605147898E-1,2.442046702E-1,-2.523270845E-1
2.547773390E1,4.042559266E-1,2.761616707E-1,-2.762948275E-1
2.549760244E1,4.442021847E-1,2.644441128E-1,-2.950029671E-1
2.551750604E1,4.804866612E-1,2.351501882E-1,-3.072531521E-1
2.553737073E1,5.055196285E-1,2.362154275E-1,-3.189707100E-1
2.555729088E1,5.193676949E-1,2.500634491E-1,-3.237642646E-1
2.557716755E1,5.364114046E-1,2.639114857E-1,-3.093836308E-1
2.559706651E1,5.641740561E-1,2.761616707E-1,-2.896768153E-1
2.561696338E1,5.881417990E-1,2.591179311E-1,-2.688381970E-1
2.563683854E1,5.961310267E-1,2.378132790E-1,-2.491313666E-1
2.565675307E1,5.796199441E-1,2.495308369E-1,-2.459356785E-1
2.567663776E1,5.401397347E-1,2.772268951E-1,-2.496639937E-1
2.569653005E1,4.900737703E-1,2.905423045E-1,-2.539249361E-1
2.571638948E1,4.362129271E-1,2.660419345E-1,-2.485987544E-1
2.573631682E1,3.776251078E-1,2.031266242E-1,-2.214353085E-1
2.575621494E1,3.312208951E-1,1.621151567E-1,-1.792920381E-1
2.577613479E1,2.976660430E-1,1.674413085E-1,-1.499981284E-1
2.579596494E1,2.651098669E-1,1.722348630E-1,-1.308239251E-1
2.581588130E1,2.416747361E-1,1.381474137E-1,-1.159106717E-1
2.583577953E1,2.384790480E-1,8.268871158E-2,-1.014634445E-1
2.585566619E1,2.501966059E-1,5.392742157E-2,-8.228924870E-2
2.587554869E1,2.645772398E-1,6.244928762E-2,-6.950645149E-2
2.589540989E1,2.613815665E-1,7.256899774E-2,-5.885412544E-2
2.591532255E1,2.416747361E-1,5.605788901E-2,-4.713656008E-2
2.593523651E1,2.070546746E-1,1.444722246E-2,-3.275591508E-2
2.595510927E1,1.723680198E-1,-1.804238372E-2,-5.525896326E-3
2.597501984E1,1.473350376E-1,-1.537930220E-2,2.589847706E-2
2.599488770E1,1.276282370E-1,4.860125482E-3,5.998593569E-2
2.601478583E1,1.031278744E-1,2.889444493E-2,8.295502514E-2
2.603467718E1,7.856093347E-2,3.475322574E-2,9.786828607E-2
2.605457286E1,5.885412544E-2,3.794892691E-3,1.122489274E-1
2.607444364E1,4.607132822E-2,-3.402087837E-2,1.250317246E-1
2.609434765E1,2.529928461E-2,-3.721657768E-2,1.213034093E-1
2.611425911E1,-8.854749613E-3,-1.378145255E-2,1.005313694E-1
2.613414932E1,-5.838808417E-2,-2.596505452E-3,7.862751186E-2
2.615405599E1,-1.058575287E-1,-2.869471535E-2,6.797518581E-2
2.617390646E1,-1.569887102E-1,-7.776200771E-2,7.117088139E-2
2.619379208E1,-2.215018868E-1,-1.352845877E-1,8.987903595E-2
2.621366651E1,-2.870802879E-1,-1.635132730E-1,1.186403260E-1
2.623357750E1,-3.509942889E-1,-1.705038548E-1,1.474016160E-1
2.625348901E1,-3.973985016E-1,-1.859497428E-1,1.783599555E-1
2.627335838E1,-4.325511754E-1,-2.280264497E-1,2.033929378E-1
2.629324156E1,-4.581167698E-1,-2.882786989E-1,2.230997384E-1
2.631314010E1,-4.677704573E-1,-3.181052208E-1,2.444044054E-1
2.633302119E1,-4.645747542E-1,-3.159747422E-1,2.582524419E-1
2.635295369E1,-4.629769027E-1,-3.218335211E-1,2.625133693E-1
2.637281812E1,-4.725640118E-1,-3.074528873E-1,2.486653328E-1
2.639271922E1,-4.746944606E-1,-2.632457018E-1,2.065886259E-1
2.641259073E1,-4.575841725E-1,-2.360156924E-1,1.665758193E-1
2.643251520E1,-4.288228750E-1,-2.450701743E-1,1.415428370E-1
2.645240734E1,-3.915397227E-1,-2.595174015E-1,1.324883550E-1
2.647227119E1,-3.541899920E-1,-2.551898956E-1,1.330209672E-1
2.649217838E1,-3.323526978E-1,-2.365483046E-1,1.367492825E-1
2.651211479E1,-3.222329915E-1,-2.035260797E-1,1.399449855E-1
2.653196521E1,-3.227656186E-1,-1.774278730E-1,1.415428370E-1
2.655185604E1,-3.318201005E-1,-1.555240154E-1,1.335535944E-1
2.657174468E1,-3.355484009E-1,-1.256974936E-1,1.095858440E-1
2.659161109E1,-3.275591433E-1,-1.145125479E-1,8.402025700E-2
2.661150812E1,-3.137111366E-1,-1.182408631E-1,7.383396477E-2
2.663142901E1,-2.961347699E-1,-1.139799356E-1,6.531210244E-2
2.665130385E1,-2.731657028E-1,-1.123820841E-1,5.093145370E-2
2.667120172E1,-2.561219633E-1,-1.187734827E-1,4.027912393E-2
2.669111109E1,-2.412087023E-1,-1.225017980E-1,2.962679416E-2
2.671096625E1,-2.209692746E-1,-1.251648813E-1,2.483324520E-2
2.673088578E1,-1.831535101E-1,-1.288931966E-1,3.228987753E-2
2.675075765E1,-1.330209672E-1,-1.427412182E-1,4.081173986E-2
2.677064114E1,-7.969274372E-2,-1.875475943E-1,5.519238487E-2
2.679054922E1,-3.069202602E-2,-2.381461561E-1,6.690994650E-2
2.681044224E1,5.059856921E-3,-2.535920441E-1,6.318163127E-2
2.683032698E1,3.967992961E-2,-2.312221378E-1,4.613790661E-2
2.685023328E1,7.536523789E-2,-2.099174857E-1,2.696371078E-2
2.687012031E1,1.148454323E-1,-2.115153372E-1,8.322132751E-3
2.689001286E1,1.633135378E-1,-2.013956159E-1,-1.358172111E-2
2.690989614E1,2.166417688E-1,-1.816888005E-1,-3.275591508E-2
2.692978083E1,2.827527821E-1,-1.742321700E-1,-4.660394415E-2
2.694968776E1,3.615800440E-1,-1.657103151E-1,-3.595161438E-2
2.696957005E1,4.426043332E-1,-1.272953451E-1,-2.476666868E-2
2.698946224E1,5.065848827E-1,-8.308817446E-2,-3.754946589E-2
2.700934687E1,5.417375565E-1,-8.628387749E-2,-6.950645149E-2
2.702924974E1,5.566508174E-1,-1.283605844E-1,-1.003982127E-1
2.704912838E1,5.599130988E-1,-1.560566425E-1,-1.207042187E-1
2.706902474E1,5.555856228E-1,-1.214365661E-1,-1.436067224E-1
2.708891922E1,5.310852528E-1,-4.094489291E-2,-1.675744653E-1
2.710878552E1,4.996608794E-1,2.030600421E-2,-1.750310957E-1
2.712869526E1,4.666386545E-1,3.528584540E-2,-1.739658713E-1
2.714858724E1,4.458000064E-1,2.516612969E-2,-1.744984835E-1
2.716848807E1,4.356803000E-1,1.125152409E-2,-1.718354076E-1
2.718835385E1,4.340824485E-1,2.197043039E-2,-1.617156863E-1
2.720828713E1,4.308867455E-1,5.765573680E-2,-1.446719617E-1
2.722816036E1,4.154408872E-1,1.061238423E-1,-1.372153312E-1
2.724809521E1,3.920057416E-1,1.290929317E-1,-1.382805556E-1
2.726791781E1,3.728315532E-1,1.152448952E-1,-1.409436464E-1
2.728782401E1,3.599821925E-1,9.334104508E-2,-1.531938314E-1
2.730773786E1,3.440036774E-1,1.002650559E-1,-1.595852226E-1
2.732760500E1,3.328187466E-1,1.386800259E-1,-1.537264436E-1
2.734749609E1,3.232316375E-1,1.610499173E-1,-1.452045739E-1
2.736738724E1,3.056553006E-1,1.136470512E-1,-1.276282370E-1
2.738726854E1,2.688381970E-1,3.475322574E-2,-1.019960642E-1
2.740715479E1,2.320876420E-1,-1.644453406E-2,-6.844121963E-2
2.742707880E1,1.937392503E-1,-1.378145255E-2,-2.636451647E-2
2.744694489E1,1.579873711E-1,3.262276202E-2,7.256899960E-3
2.746684083E1,1.196389869E-1,5.872096866E-2,2.749632671E-2
2.748674974E1,8.335448056E-2,4.434032366E-2,3.761604056E-2
2.750661385E1,5.459319428E-2,3.102491237E-2,3.335510939E-2
2.752650984E1,3.541899845E-2,6.511236727E-2,1.471353136E-2
2.754641401E1,1.997311972E-2,1.296255440E-1,-1.085206121E-2
2.756631619E1,-1.930734841E-3,1.733001024E-1,-3.914731368E-2
2.758620776E1,-2.483324520E-2,1.807567328E-1,-5.725627393E-2
2.760615770E1,-4.240959138E-2,1.722348630E-1,-6.151720881E-2
2.762598515E1,-6.424686313E-2,1.823545843E-1,-4.181039706E-2
2.764586093E1,-9.999874979E-2,2.340849638E-1,-7.656362373E-3
2.766574760E1,-1.420754492E-1,2.942706347E-1,1.844184659E-2
2.768565510E1,-1.895449013E-1,3.017938435E-1,2.110492997E-2
2.770555088E1,-2.278932929E-1,2.639114857E-1,-2.862813650E-3
2.772542323E1,-2.476001084E-1,2.367480397E-1,-3.648423031E-2
2.774533932E1,-2.555893362E-1,2.143781483E-1,-6.364767253E-2
2.776520854E1,-2.635785937E-1,1.642456204E-1,-7.696308941E-2
2.778511510E1,-2.651764452E-1,1.189732105E-1,-7.323476672E-2
2.780501625E1,-2.764279842E-1,8.801487833E-2,-5.885412544E-2
2.782491026E1,-3.089175820E-1,4.274247587E-2,-3.169068322E-2
2.784478890E1,-3.472659588E-1,1.444722246E-2,1.045259926E-2
2.786467468E1,-3.691698313E-1,1.924077235E-2,5.039883777E-2
2.788456703E1,-3.872787952E-1,1.604507305E-2,7.916013151E-2
2.790444948E1,-4.160400629E-1,2.729659667E-3,9.360735118E-2
2.792436187E1,-4.501275420E-1,-2.070546709E-2,1.021292135E-1
2.794425703E1,-4.688356817E-1,-3.561872989E-2,1.074553803E-1
2.796414776E1,-4.629769027E-1,-2.177070081E-2,1.095858440E-1
2.798399927E1,-4.394752085E-1,3.794892691E-3,1.095858440E-1
2.800391078E1,-4.032572806E-1,1.664426643E-3,1.095858440E-1
2.802381765E1,-3.600487709E-1,-2.336854860E-2,1.122489274E-1
2.804369172E1,-3.190372884E-1,-4.946675897E-2,1.191729456E-1
2.806357010E1,-2.828193605E-1,-8.894696087E-2,1.351514459E-1
2.808346177E1,-2.470674813E-1,-1.123820841E-1,1.591191888E-1
2.810336713E1,-2.049907744E-1,-9.161003679E-2,1.858165860E-1
2.812324692E1,-1.511299312E-1,-4.041227698E-2,2.220345140E-1
2.814315765E1,-7.330134511E-2,-2.596505452E-3,2.673735023E-1
2.816300791E1,2.636451647E-2,1.977338828E-2,3.073197305E-1
2.818292557E1,1.025952548E-1,6.085143611E-2,3.078523576E-1
2.820280401E1,1.425414979E-1,4.700340703E-2,2.742975056E-1
2.822270442E1,1.558569074E-1,-5.852124095E-2,2.406760901E-1
2.824259442E1,1.579873711E-1,-1.288931966E-1,2.007298470E-1
2.826250526E1,1.297587007E-1,-1.267627329E-1,1.553908736E-1
2.828239099E1,8.228924870E-2,-7.509893179E-2,1.207707971E-1
2.830228755E1,4.394086078E-2,2.197043039E-3,8.828118443E-2
2.832218390E1,1.837527007E-2,2.356828004E-2,6.850779802E-2
2.834206557E1,5.592473317E-3,-3.615134582E-2,6.531210244E-2
2.836197078E1,8.788172156E-3,-1.022623703E-1,6.637733430E-2
2.838184708E1,1.571218669E-2,-1.177082509E-1,6.318163127E-2
2.840175265E1,2.423405088E-2,-7.989247888E-2,6.531210244E-2
2.842161739E1,4.713656008E-2,-1.910761744E-2,7.010564953E-2
2.844152380E1,8.335448056E-2,1.018629037E-2,7.276873291E-2
2.846140812E1,1.207042187E-1,-1.058575325E-2,6.531210244E-2
2.848129484E1,1.574547589E-1,-6.118432060E-2,5.519238487E-2
2.850118802E1,1.884130985E-1,-9.161003679E-2,3.921389207E-2
2.852108010E1,2.235657871E-1,-6.384740770E-2,1.364829857E-2
2.854099869E1,2.635120153E-1,-1.964023337E-2,-1.890788600E-2
2.856086823E1,3.013943732E-1,-2.336854860E-2,-4.607132822E-2
2.858074375E1,3.306882679E-1,-5.159722641E-2,-6.258244067E-2
2.860066526E1,3.498624861E-1,-5.319507420E-2,-7.216953486E-2
2.862055859E1,3.679714203E-1,-5.259587895E-3,-8.175663650E-2
2.864042375E1,3.893426657E-1,5.765573680E-2,-9.240896255E-2
2.866030661E1,4.069190025E-1,8.055824786E-2,-1.073888019E-1
2.868020401E1,4.058537781E-1,4.007939249E-2,-1.281608492E-1
2.870010854E1,4.031907022E-1,-1.431406848E-2,-1.430741102E-1
2.872000083E1,4.106473327E-1,-4.726971500E-3,-1.515959799E-1
2.873988802E1,4.239627421E-1,7.523208112E-2,-1.537264436E-1
2.875980515E1,4.447347820E-1,1.530606747E-1,-1.563895196E-1
2.877967672E1,4.687691033E-1,1.764957905E-1,-1.595852226E-1
2.879956963E1,4.852802157E-1,1.418757290E-1,-1.718354076E-1
2.881943604E1,4.964651763E-1,1.136470512E-1,-1.883465201E-1
2.883936156E1,5.007261038E-1,1.450714171E-1,-2.166417688E-1
2.885922630E1,4.938020706E-1,2.052570879E-1,-2.480661422E-1
2.887915208E1,4.794214368E-1,2.495308369E-1,-2.720338702E-1
2.889902828E1,4.591154456E-1,2.644441128E-1,-2.976660430E-1
2.891891859E1,4.415390790E-1,2.479329854E-1,-3.077857792E-1
2.893880552E1,4.287562966E-1,2.234326303E-1,-3.003291488E-1
2.895867843E1,4.090494812E-1,2.250304818E-1,-2.784252763E-1
2.897858020E1,3.749620318E-1,2.596505582E-1,-2.459356785E-1
2.899847135E1,3.173728585E-1,2.852161527E-1,-2.123808414E-1
2.901834651E1,2.288919389E-1,2.772268951E-1,-1.851508170E-1
2.903827666E1,1.292260885E-1,2.543243766E-1,-1.713027805E-1
2.905818427E1,3.328853101E-2,2.223673910E-1,-1.606504619E-1
2.907806531E1,-5.679023638E-2,1.828871965E-1,-1.409436464E-1
2.909790880E1,-1.399449855E-1,1.402778774E-1,-1.217694506E-1
2.911780385E1,-2.172409594E-1,9.227581322E-2,-1.003982127E-1
2.913772609E1,-2.918738425E-1,6.351451576E-2,-8.974587917E-2
2.915760828E1,-3.547225893E-1,5.552527308E-2,-9.347419441E-2
2.917748062E1,-4.005942047E-1,3.155753016E-2,-9.826774895E-2
2.919738838E1,-4.325511754E-1,-2.443378232E-2,-9.560466558E-2
2.921726640E1,-4.549210668E-1,-8.362079412E-2,-8.175663650E-2
2.923716552E1,-4.677704573E-1,-1.091863886E-1,-5.991935730E-2
2.925709177E1,-4.837489426E-1,-1.107842326E-1,-3.914731368E-2
2.927696880E1,-4.991948307E-1,-1.342193633E-1,-2.689713426E-2
2.929683156E1,-5.189016461E-1,-1.736995578E-1,-2.370143496E-2
2.931673156E1,-5.380758047E-1,-1.859497428E-1,-2.316881903E-2
2.933661994E1,-5.423367620E-1,-1.721017063E-1,-3.222329915E-2
2.935652255E1,-5.439345837E-1,-1.651777029E-1,-3.914731368E-2
2.937641390E1,-5.386084318E-1,-1.763626486E-1,-3.488638252E-2
2.939630021E1,-5.263582468E-1,-1.838192791E-1,-2.316881903E-2
2.941622854E1,-5.194342732E-1,-1.646450758E-1,-2.050573565E-2
2.943612958E1,-5.231625438E-1,-1.555240154E-1,-2.157096937E-2
2.945596656E1,-5.252930522E-1,-1.747647971E-1,-1.571218669E-2
2.947585031E1,-5.215647221E-1,-2.077870220E-1,4.061201122E-3
2.949576765E1,-5.258256793E-1,-2.125805616E-1,2.643109486E-2
2.951566109E1,-5.252930522E-1,-1.880802065E-1,4.880098626E-2
2.953554755E1,-5.162385702E-1,-1.758300215E-1,6.957302988E-2
2.955543510E1,-4.991948307E-1,-1.918085217E-1,8.508548886E-2
2.957533161E1,-4.757596850E-1,-2.195045799E-1,8.774857223E-2
2.959523682E1,-4.538558424E-1,-2.408092469E-1,7.702966034E-2
2.961511703E1,-4.298880994E-1,-2.365483046E-1,5.572500080E-2
2.963499890E1,-3.958006501E-1,-2.109827101E-1,3.868127242E-2
2.965490307E1,-3.477985859E-1,-2.003303915E-1,2.749632671E-2
2.967479765E1,-3.035914004E-1,-2.317547649E-1,1.524614729E-2
2.969467739E1,-2.657090724E-1,-2.648435533E-1,7.789516356E-3
2.971457619E1,-2.225671262E-1,-2.611152530E-1,4.061201122E-3
2.973444198E1,-1.879470497E-1,-2.487984896E-1,7.789516356E-3
2.975434833E1,-1.575213373E-1,-2.466680259E-1,2.110492997E-2
2.977425672E1,-1.218360290E-1,-2.434723228E-1,3.548557684E-2
2.979416151E1,-8.288844675E-2,-2.408092469E-1,4.454005510E-2
2.981406109E1,-4.613790661E-2,-2.450701743E-1,4.347482324E-2
2.983389536E1,-1.631138101E-2,-2.477332503E-1,3.388772532E-2
2.985381021E1,1.411433797E-2,-2.168415040E-1,1.364829857E-2
2.987370515E1,6.364767253E-2,-1.544587910E-1,-7.656362373E-3
2.989358573E1,1.350848675E-1,-1.203713343E-1,-1.677742042E-2
2.991346166E1,1.942718774E-1,-1.198387146E-1,-1.890788600E-2
2.993334692E1,2.368811965E-1,-1.171756312E-1,-2.157096937E-2
2.995325708E1,2.699034214E-1,-8.894696087E-2,-2.050573565E-2
2.997312885E1,3.024595976E-1,-3.189041466E-2,-2.476666868E-2
2.999304562E1,3.258947134E-1,1.604507305E-2,-2.583190054E-2
3.001290781E1,3.578517139E-1,2.995967865E-2,-2.370143496E-2
3.003280359E1,3.914731443E-1,2.090519853E-2,-2.157096937E-2
3.005271807E1,4.186365902E-1,1.231675688E-2,-1.997311972E-2
3.007258218E1,4.489957094E-1,2.356828004E-2,-1.251648832E-2
3.009249317E1,4.858128428E-1,4.913387448E-2,9.919982404E-3
3.011238224E1,5.097805858E-1,5.712312087E-2,4.187697172E-2
3.013228557E1,5.129762888E-1,5.073172227E-2,6.850779802E-2
3.015218422E1,5.001934767E-1,4.487293959E-2,7.916013151E-2
3.017207213E1,4.820845127E-1,2.942706272E-2,9.041165560E-2
3.019194234E1,4.687691033E-1,1.018629037E-2,1.117163152E-1
3.021181864E1,4.612458944E-1,9.653674439E-3,1.356840581E-1
3.023174203E1,4.468652606E-1,2.995967865E-2,1.468690038E-1
3.025159646E1,4.234301150E-1,3.635107726E-2,1.404775977E-1
3.027149864E1,3.877448142E-1,1.071890723E-2,1.266295761E-1
3.029139119E1,3.573191166E-1,-1.857500151E-2,1.005313694E-1
3.031127760E1,3.312208951E-1,-3.774919361E-2,6.211639941E-2
3.033117177E1,2.928725183E-1,-4.414059222E-2,1.098521519E-2
3.035106932E1,2.427399755E-1,-3.082518093E-2,-6.418029219E-2
3.037095791E1,1.840855777E-1,-2.336854860E-2,-1.430741102E-1
3.039086130E1,1.265629977E-1,-2.390116639E-2,-2.123808414E-1
3.041075713E1,8.388710022E-2,-1.271621883E-2,-2.603163123E-1
3.043067000E1,4.979964346E-2,3.794892691E-3,-2.902094126E-1
3.045054296E1,2.796236612E-2,1.131810131E-3,-3.072531521E-1
3.047041656E1,1.837527007E-2,-7.922670804E-3,-3.067205250E-1
3.049033500E1,1.517957076E-2,3.794892691E-3,-2.939377427E-1
3.051019172E1,1.251648832E-2,2.782921307E-2,-2.741643488E-1
3.053009718E1,9.853405878E-3,3.635107726E-2,-2.597837150E-1
3.054998791E1,1.797580742E-3,1.604507305E-2,-2.416747361E-1
3.056988328E1,-8.854749613E-3,6.657706399E-5,-2.225005478E-1
3.058979244E1,-3.122464381E-2,2.143781446E-2,-2.070546746E-1
3.060964791E1,-7.063826174E-2,5.872096866E-2,-1.835529655E-1
3.062955343E1,-1.069227681E-1,8.428656310E-2,-1.617156863E-1
3.064945661E1,-1.436733007E-1,7.416684926E-2,-1.574547589E-1
3.066933937E1,-1.911427528E-1,4.380770773E-2,-1.531938314E-1
3.068922364E1,-2.358825356E-1,6.777545065E-2,-1.388131827E-1
3.070912453E1,-2.689047754E-1,1.269624680E-1,-1.191063672E-1
3.072902984E1,-2.881455421E-1,1.487997323E-1,-1.057909578E-1
3.074890396E1,-3.035914004E-1,1.152448952E-1,-8.175663650E-2
3.076881807E1,-3.158415854E-1,8.748225868E-2,-5.086487532E-2
3.078868000E1,-3.334179223E-1,8.854749799E-2,-2.796236612E-2
3.080858619E1,-3.681045771E-1,9.121058136E-2,-2.862813650E-3
3.082846364E1,-4.133769870E-1,1.125152409E-1,3.228987753E-2
3.084836661E1,-4.565189183E-1,1.535932869E-1,7.117088139E-2
3.086825922E1,-4.794880152E-1,1.748979539E-1,1.143793985E-1
3.088818755E1,-4.800206423E-1,1.679739356E-1,1.548582464E-1
3.090808656E1,-4.699009061E-1,1.413431019E-1,2.055234015E-1
3.092794067E1,-4.629769027E-1,1.376147866E-1,2.577198148E-1
3.094783005E1,-4.597146213E-1,1.482671201E-1,2.908086181E-1
3.096768661E1,-4.410730600E-1,1.498649716E-1,3.035914004E-1
3.098761505E1,-4.234966934E-1,1.237667650E-1,3.083849549E-1
3.100750213E1,-4.000615776E-1,7.523208112E-2,3.062545061E-1
3.102738260E1,-3.547225893E-1,2.623136342E-2,2.934716940E-1
3.104727093E1,-2.966673970E-1,-1.431406848E-2,2.801562846E-1
3.106717057E1,-2.412087023E-1,-5.532554165E-2,2.780258060E-1
3.108707161E1,-1.825543046E-1,-8.734910935E-2,2.785584331E-1
3.110693109E1,-1.335535944E-1,-1.129147038E-1,2.689713240E-1
3.112684557E1,-1.138467789E-1,-1.549914032E-1,2.555893362E-1
3.114672937E1,-9.946613014E-2,-1.806235760E-1,2.326868325E-1
3.116662573E1,-8.395367861E-2,-1.726343334E-1,2.113821805E-1
3.118651146E1,-7.223611325E-2,-1.710364819E-1,2.033929378E-1
3.120639198E1,-4.826837033E-2,-1.891454458E-1,2.172409594E-1
3.122630869E1,-1.418091450E-2,-1.992651522E-1,2.385456264E-1
3.124622614E1,2.529928461E-2,-1.721017063E-1,2.625133693E-1
3.126613843E1,6.151720881E-2,-1.230344176E-1,2.774932086E-1
3.128598510E1,9.187635034E-2,-9.906667471E-2,2.801562846E-1
3.130584531E1,1.265629977E-1,-1.081211492E-1,2.673735023E-1
3.132577265E1,1.627809256E-1,-1.320888996E-1,2.422739416E-1
3.134565343E1,2.033263594E-1,-1.363498271E-1,2.241649777E-1
3.136555203E1,2.587184608E-1,-1.011971384E-1,2.065886259E-1
3.138541729E1,3.179054856E-1,-6.597787142E-2,1.868818253E-1
3.140532796E1,3.583843410E-1,-5.532554165E-2,1.532603949E-1
3.142520552E1,3.760272563E-1,-5.266245827E-2,1.015966013E-1
3.144513942E1,3.706345260E-1,-3.615134582E-2,2.643109486E-2
3.146500859E1,3.605147898E-1,-4.194355104E-3,-4.979964346E-2
3.148487218E1,3.706345260E-1,2.995967865E-2,-9.933298081E-2
3.150476182E1,3.941362202E-1,4.966649041E-2,-1.244325340E-1
3.152467567E1,4.133104086E-1,7.150376588E-2,-1.377479434E-1
3.154457255E1,4.324845970E-1,1.205710620E-1,-1.553242952E-1
3.156443088E1,4.511261880E-1,1.669086963E-1,-1.713027805E-1
3.158434609E1,4.724974334E-1,1.993983090E-1,-1.830203533E-1
3.160425260E1,4.991282523E-1,2.213021666E-1,-1.830203533E-1
3.162413885E1,5.316178799E-1,2.415415943E-1,-1.654440016E-1
3.164403296E1,5.625761747E-1,2.697702646E-1,-1.553242952E-1
3.166390849E1,5.806851387E-1,2.804225981E-1,-1.510633528E-1
3.168381442E1,5.945332050E-1,2.532591522E-1,-1.292260885E-1
3.170369547E1,6.003919840E-1,2.213021666E-1,-9.986559302E-2
3.172357922E1,5.844134688E-1,1.988656968E-1,-7.110430300E-2
3.174346698E1,5.401397347E-1,1.823545843E-1,-5.565842614E-2
3.176336880E1,4.719648063E-1,1.685065478E-1,-5.086487532E-2
3.178323328E1,4.005276263E-1,1.594520658E-1,-3.435376659E-2
3.180314724E1,3.557212651E-1,1.519954354E-1,-1.031944528E-2
3.182304724E1,3.269599676E-1,1.397452503E-1,7.789516356E-3
3.184291531E1,2.944703400E-1,1.152448952E-1,9.919982404E-3
3.186281593E1,2.597837150E-1,6.777545065E-2,9.387366474E-3
3.188270770E1,2.065220475E-1,2.463351376E-2,-2.330197254E-3
3.190261526E1,1.372153312E-1,1.977338828E-2,-2.636451647E-2
3.192250073E1,6.790860742E-2,5.286218971E-2,-5.512581021E-2
3.194237646E1,5.059856921E-3,8.375394344E-2,-8.175663650E-2
3.196225791E1,-4.826837033E-2,7.949301600E-2,-9.720251709E-2
3.198220052E1,-8.235582709E-2,4.700340703E-2,-9.773512930E-2
3.200209427E1,-1.106510833E-1,1.870815456E-2,-8.388710022E-2
3.202193406E1,-1.378145218E-1,1.870815456E-2,-6.790860742E-2
3.204185557E1,-1.649779677E-1,4.274247587E-2,-5.033225939E-2
3.206172093E1,-1.916753650E-1,4.487293959E-2,-1.411433797E-2
3.208161989E1,-2.183061987E-1,1.497983932E-2,2.163754590E-2
3.210150114E1,-2.476001084E-1,-2.070546709E-2,4.454005510E-2
3.212138619E1,-2.902759910E-1,-3.721657768E-2,6.105116755E-2
3.214128255E1,-3.328853250E-1,-1.910761744E-2,6.690994650E-2
3.216116635E1,-3.686372042E-1,-3.129122080E-3,7.117088139E-2
3.218112302E1,-3.952680230E-1,-1.697715186E-2,8.668334037E-2
3.220096760E1,-4.144422114E-1,-3.561872989E-2,9.627043456E-2
3.222085192E1,-4.234966934E-1,-4.147751257E-2,1.037270650E-1
3.224073156E1,-4.234966934E-1,-3.189041466E-2,1.053249165E-1
3.226065224E1,-4.288228750E-1,-1.750976779E-2,9.467258304E-2
3.228051302E1,-4.368121028E-1,-7.390053943E-3,7.170350105E-2
3.230044005E1,-4.362795055E-1,-1.165098604E-2,5.306192115E-2
3.232032328E1,-4.171053171E-1,-2.496639825E-2,4.826837033E-2
3.234019854E1,-3.878113925E-1,-3.135779873E-2,5.199668556E-2
3.236010312E1,-3.595161438E-1,-2.975994721E-2,6.158378348E-2
3.237999536E1,-3.318201005E-1,-3.615134582E-2,6.797518581E-2
3.239988396E1,-3.073197305E-1,-6.864095479E-2,7.063826174E-2
3.241976843E1,-2.790910602E-1,-1.054580659E-1,7.170350105E-2
3.243964593E1,-2.481327206E-1,-1.171756312E-1,7.330134511E-2
3.245956974E1,-2.172409594E-1,-1.262301207E-1,7.383396477E-2
3.247944406E1,-1.916753650E-1,-1.486000121E-1,7.170350105E-2
3.249933067E1,-1.697715074E-1,-1.683733910E-1,6.424686313E-2
3.251923119E1,-1.426080763E-1,-1.758300215E-1,5.093145370E-2
3.253912151E1,-1.058575287E-1,-1.928737611E-1,3.974650800E-2
3.255905239E1,-5.945331976E-2,-2.141784132E-1,5.093145370E-2
3.257889677E1,-9.919982404E-3,-2.051239312E-1,7.809489965E-2
3.259881588E1,3.595161438E-2,-1.705038548E-1,1.026618332E-1
3.261868937E1,8.761541545E-2,-1.651777029E-1,1.207707971E-1
3.263858135E1,1.436067224E-1,-2.072543949E-1,1.319557428E-1
3.265846093E1,1.884130985E-1,-2.386787683E-1,1.383471340E-1
3.267835369E1,2.251636237E-1,-2.019282281E-1,1.479342431E-1
3.269825692E1,2.624467909E-1,-1.038602218E-1,1.612496525E-1
3.271816078E1,3.008617461E-1,-1.378145255E-2,1.607170254E-1
3.273806567E1,3.408080041E-1,1.231675688E-2,1.489994675E-1
3.275793823E1,3.653083444E-1,-9.986559162E-4,1.202381775E-1
3.277780411E1,3.738967776E-1,8.588441648E-3,8.075797558E-2
3.279771599E1,3.802881837E-1,7.682993263E-2,3.868127242E-2
3.281759739E1,3.909405172E-1,1.567889899E-1,1.418091450E-2
3.283749588E1,4.170387387E-1,1.946047544E-1,1.045259926E-2
3.285737177E1,4.447347820E-1,1.908764392E-1,1.631138101E-2
3.287726198E1,4.564523399E-1,1.764957905E-1,1.098521519E-2
3.289717744E1,4.639089704E-1,1.695717871E-1,8.322132751E-3
3.291706057E1,4.740952849E-1,1.631803811E-1,1.844184659E-2
3.293693291E1,4.900737703E-1,1.392126381E-1,5.679023638E-2
3.295685672E1,5.033891797E-1,1.152448952E-1,1.085206121E-1
3.297672927E1,5.033891797E-1,1.002650559E-1,1.415428370E-1
3.299660531E1,4.900737703E-1,7.310161740E-2,1.559234858E-1
3.301652942E1,4.623111188E-1,9.653674439E-3,1.665758193E-1
3.303638692E1,4.271584451E-1,-4.573844373E-2,1.751642525E-1
3.305628458E1,3.840165138E-1,-4.733629152E-2,1.676410437E-1
3.307621906E1,3.317535222E-1,-2.603163198E-2,1.543256342E-1
3.309612885E1,2.811549306E-1,-3.402087837E-2,1.399449855E-1
3.311598739E1,2.358159572E-1,-6.278216839E-2,1.213034093E-1
3.313586505E1,1.878804713E-1,-7.776200771E-2,8.934641629E-2
3.315577656E1,1.388131827E-1,-6.810833514E-2,4.880098626E-2
3.317565479E1,8.921326697E-2,-5.106460676E-2,1.577876508E-2
3.319552823E1,4.500609636E-2,-3.881442919E-2,-4.460663069E-3
3.321543567E1,-4.593817517E-3,-3.135779873E-2,-2.157096937E-2
3.323529437E1,-6.051855162E-2,-2.656424791E-2,-3.595161438E-2
3.325521494E1,-1.175750941E-1,-1.964023337E-2,-4.447348043E-2
3.327508833E1,-1.708367467E-1,-1.378145255E-2,-5.193011090E-2
3.329499786E1,-2.177735716E-1,-1.910761744E-2,-4.766917601E-2
3.331489578E1,-2.619807422E-1,-3.348826244E-2,-4.181039706E-2
3.333479297E1,-3.078523576E-1,-4.414059222E-2,-4.553871229E-2
3.335468005E1,-3.451355100E-1,-3.455349803E-2,-4.926702753E-2
3.337456260E1,-3.744959831E-1,-2.336854860E-2,-5.619104207E-2
3.339443208E1,-3.979310989E-1,-5.212984234E-2,-6.151720881E-2
3.341433062E1,-4.171053171E-1,-1.262301207E-1,-6.045197323E-2
3.343426437E1,-4.362795055E-1,-1.784931123E-1,-6.098458916E-2
3.345416406E1,-4.511927664E-1,-1.603175700E-1,-6.098458916E-2
3.347404515E1,-4.517253935E-1,-1.422086060E-1,-5.725627393E-2
3.349391494E1,-4.421382844E-1,-1.939389855E-1,-3.488638252E-2
3.351379218E1,-4.208336174E-1,-2.792242169E-1,-1.997311920E-4
3.353367041E1,-4.043225050E-1,-3.650420308E-1,2.802894451E-2
3.355357630E1,-3.968658745E-1,-3.794226944E-1,2.749632671E-2
3.357347302E1,-4.048551321E-1,-2.983984053E-1,6.191667169E-3
3.359336468E1,-4.240293205E-1,-1.731669456E-1,-1.837527007E-2
3.361326817E1,-4.256271720E-1,-7.669677585E-2,-3.275591508E-2
3.363314979E1,-4.149748385E-1,-8.255556226E-2,-4.607132822E-2
3.365306797E1,-3.995289505E-1,-1.747647971E-1,-5.619104207E-2
3.367292489E1,-3.669727743E-1,-2.386787683E-1,-5.459319428E-2
3.369280203E1,-3.232982159E-1,-1.934063733E-1,-5.938674137E-2
3.371271984E1,-2.817541361E-1,-9.746882319E-2,-7.057169080E-2
3.373260312E1,-2.230997384E-1,-4.147751257E-2,-6.577813625E-2
3.375250390E1,-1.489994675E-1,-5.692338943E-2,-5.406057462E-2
3.377236875E1,-8.235582709E-2,-8.628387749E-2,-5.193011090E-2
3.379229390E1,-1.471353136E-2,-4.946675897E-2,-5.512581021E-2
3.381220573E1,5.885412544E-2,5.392742157E-2,-6.897383928E-2
3.383211125E1,1.191063672E-1,1.338864714E-1,-1.041931063E-1
3.385193156E1,1.681070924E-1,1.322886199E-1,-1.238999143E-1
3.387185823E1,2.193048447E-1,1.168427467E-1,-1.254977584E-1
3.389174880E1,2.715012729E-1,1.274950802E-1,-1.201715991E-1
3.391160380E1,3.195033371E-1,1.290929317E-1,-1.127149686E-1
3.393148635E1,3.567864895E-1,1.296255440E-1,-1.047257185E-1
3.395140192E1,3.866795897E-1,1.456040442E-1,-9.986559302E-2
3.397127521E1,4.143756330E-1,1.653108448E-1,-9.507204592E-2
3.399116770E1,4.394086301E-1,1.839524209E-1,-8.761541545E-2
3.401110687E1,4.714321792E-1,2.031266242E-1,-7.057169080E-2
3.403097984E1,5.129762888E-1,2.117150575E-1,-4.926702753E-2
3.405084843E1,5.444006324E-1,2.074541301E-1,-3.595161438E-2
3.407073666E1,5.604457259E-1,2.175738513E-1,-3.595161438E-2
3.409062682E1,5.721632838E-1,2.607157826E-1,-5.193011090E-2
3.411053422E1,5.828156471E-1,3.108483255E-1,-7.856093347E-2
3.413041646E1,5.854787230E-1,3.438705504E-1,-1.035939083E-1
3.415028734E1,5.790873170E-1,3.598490357E-1,-1.260303855E-1
3.417020984E1,5.631088018E-1,3.657078147E-1,-1.478676647E-1
3.419008265E1,5.475963354E-1,3.651751876E-1,-1.521285921E-1
3.420997218E1,5.326830745E-1,3.774253726E-1,-1.425414979E-1
3.422985000E1,5.188350677E-1,3.816863000E-1,-1.196389869E-1
3.424976781E1,4.996608794E-1,3.662404418E-1,-8.708280325E-2
3.426964849E1,4.666386545E-1,3.337508142E-1,-5.086487532E-2
3.428955119E1,4.239627421E-1,2.910749316E-1,-1.944050193E-2
3.430944088E1,3.621126413E-1,2.559222281E-1,-2.862813650E-3
3.432931265E1,2.811549306E-1,2.404763550E-1,-2.862813650E-3
3.434922656E1,1.980001926E-1,2.431394309E-1,-2.050573565E-2
3.436912437E1,1.238999143E-1,2.362154275E-1,-4.660394415E-2
3.438902984E1,4.926702753E-2,1.940721422E-1,-7.749570161E-2
3.440888781E1,-2.856156044E-2,1.296255440E-1,-1.111171171E-1
3.442880359E1,-1.079879999E-1,7.842778414E-2,-1.313565522E-1
3.444867864E1,-1.852839738E-1,6.244928762E-2,-1.409436464E-1
3.446856588E1,-2.603828907E-1,7.310161740E-2,-1.409436464E-1
3.448847880E1,-3.296896219E-1,6.884068251E-2,-1.361500919E-1
3.450837015E1,-3.888766170E-1,1.711030491E-2,-1.249651462E-1
3.452825755E1,-4.394752085E-1,-5.639077350E-2,-1.089866534E-1
3.454816974E1,-4.858794212E-1,-1.049254537E-1,-9.187635034E-2
3.456812312E1,-5.274235010E-1,-1.193061024E-1,-8.122401685E-2
3.458792151E1,-5.700994134E-1,-1.256974936E-1,-6.258244067E-2
3.460783260E1,-6.015237570E-1,-1.390129030E-1,-2.902759984E-2
3.462771073E1,-6.057847142E-1,-1.528609395E-1,1.684399694E-2
3.464759135E1,-6.041868329E-1,-1.678407788E-1,6.424686313E-2
3.466750640E1,-6.175022721E-1,-1.721017063E-1,9.573781490E-2
3.468738031E1,-6.377416849E-1,-1.635132730E-1,1.026618332E-1
3.470726646E1,-6.692326665E-1,-1.726343334E-1,9.786828607E-2
3.472715218E1,-7.054505944E-1,-2.045913190E-1,9.786828607E-2
3.474705239E1,-7.230269313E-1,-2.264285982E-1,1.181077138E-1
3.476695890E1,-7.182333469E-1,-2.205698192E-1,1.495320797E-1
3.478683151E1,-7.006570101E-1,-1.997977644E-1,1.735664010E-1
3.480670291E1,-6.825480461E-1,-1.923411340E-1,1.847513467E-1
3.482660218E1,-6.676347852E-1,-2.040587068E-1,1.767621040E-1
3.484649333E1,-6.409373879E-1,-2.168415040E-1,1.569887102E-1
3.486640265E1,-5.983280540E-1,-2.029934675E-1,1.420754492E-1
3.488631885E1,-5.364779830E-1,-1.523283273E-1,1.276948154E-1
3.490625083E1,-4.619116783E-1,-1.198387146E-1,1.085206121E-1
3.492610557E1,-3.867461681E-1,-1.395455301E-1,8.774857223E-2
3.494595640E1,-3.222329915E-1,-1.528609395E-1,6.318163127E-2
3.496587099E1,-2.582524419E-1,-9.427312016E-2,2.962679416E-2
3.498575161E1,-1.906101406E-1,1.284937374E-2,-4.460663069E-3
3.500563911E1,-1.143793985E-1,8.694964647E-2,-3.435376659E-2
3.502551297E1,-2.536586113E-2,8.801487833E-2,-4.287562892E-2
3.504542208E1,7.589785010E-2,7.949301600E-2,-1.677742042E-2
3.506530177E1,1.926740259E-1,1.855502725E-1,1.684399694E-2
3.508521192E1,3.290904164E-1,3.822189271E-1,2.430062927E-2
3.510516463E1,4.548544884E-1,4.749607742E-1,3.015941009E-2
3.512500838E1,5.631088018E-1,3.998618424E-1,3.708342463E-2
3.514486708E1,6.461969614E-1,3.039242923E-1,2.696371078E-2
3.516475854E1,6.872750521E-1,3.209680319E-1,-1.997311972E-2
3.518466635E1,7.016556859E-1,4.147751033E-1,-6.204982474E-2
3.520455963E1,7.155036926E-1,5.011255741E-1,-9.027849883E-2
3.522443974E1,7.272212505E-1,5.107126832E-1,-1.153780520E-1
3.524433250E1,7.378736138E-1,4.451342523E-1,-1.169759035E-1
3.526423713E1,7.544512749E-1,3.816863000E-1,-1.063235700E-1
3.528415500E1,7.730928659E-1,3.401422203E-1,-6.577813625E-2
3.530403672E1,7.949301600E-1,2.953358591E-1,3.528584493E-3
3.532393151E1,8.055824637E-1,2.250304818E-1,9.041165560E-2
3.534378411E1,7.800168991E-1,1.578542143E-1,1.692388952E-1
3.536368296E1,7.053840160E-1,1.061238423E-1,2.087190896E-1
3.538358307E1,5.924026966E-1,5.019910634E-2,2.113821805E-1
3.540347036E1,4.698343277E-1,1.125152409E-2,2.039255500E-1
3.542333802E1,3.669061959E-1,1.391460653E-2,2.012624592E-1
3.544323442E1,2.640446424E-1,5.339480564E-2,1.794251949E-1
3.546315692E1,1.505307406E-1,9.014534205E-2,1.298252791E-1
3.548306057E1,6.098458916E-2,1.147122830E-1,7.330134511E-2
3.550291260E1,-1.045259926E-2,1.274950802E-1,1.684399694E-2
3.552279937E1,-8.235582709E-2,1.130478531E-1,-3.541899845E-2
3.554271974E1,-1.404775977E-1,9.387365729E-2,-6.418029219E-2
3.556260948E1,-1.900775135E-1,1.018629074E-1,-7.536523789E-2
3.558247229E1,-2.444044054E-1,1.274950802E-1,-8.335448056E-2
3.560236989E1,-2.961347699E-1,1.264298409E-1,-8.814803511E-2
3.562227349E1,-3.403419554E-1,7.736254483E-2,-8.708280325E-2
3.564219416E1,-3.840830922E-1,6.657706399E-5,-8.228924870E-2
3.566208422E1,-4.320185781E-1,-6.438001990E-2,-7.536523789E-2
3.568193494E1,-4.768249393E-1,-7.563154399E-2,-7.376738638E-2
3.570181734E1,-5.109124184E-1,-6.864095479E-2,-8.708280325E-2
3.572174244E1,-5.359453559E-1,-1.134473160E-1,-1.030612960E-1
3.574163364E1,-5.503259897E-1,-2.061891705E-1,-1.159106717E-1
3.576151994E1,-5.589144230E-1,-2.818872929E-1,-1.249651462E-1
3.578139073E1,-5.663710833E-1,-3.069202602E-1,-1.313565522E-1
3.580130734E1,-5.738277435E-1,-2.999962568E-1,-1.345522404E-1
3.582121182E1,-5.764908195E-1,-3.079854846E-1,-1.334870160E-1
3.584109505E1,-5.615775585E-1,-3.549223244E-1,-1.260303855E-1
3.586095656E1,-5.407389402E-1,-4.246951044E-1,-1.169759035E-1
3.588085953E1,-5.279561281E-1,-4.828168750E-1,-1.127149686E-1
3.590074692E1,-5.173037648E-1,-4.860125780E-1,-1.089866534E-1
3.592064864E1,-5.050535798E-1,-4.497946501E-1,-1.143128201E-1
3.594054672E1,-4.917382002E-1,-4.332169592E-1,-1.116497368E-1
3.596042208E1,-4.688356817E-1,-4.513925016E-1,-1.035939083E-1
3.598031375E1,-4.384099543E-1,-4.737623930E-1,-8.548495173E-2
3.600021942E1,-4.101812840E-1,-4.503272474E-1,-7.270215452E-2
3.602012489E1,-3.835504651E-1,-4.033904374E-1,-6.684337556E-2
3.604002041E1,-3.621792197E-1,-3.762269914E-1,-5.352795869E-2
3.605988942E1,-3.350157738E-1,-3.554549515E-1,-3.382114694E-2
3.607975531E1,-3.083849549E-1,-3.143768907E-1,-3.169068322E-2
3.609966224E1,-2.865476906E-1,-2.600499988E-1,-3.275591508E-2
3.611955869E1,-2.651764452E-1,-1.971346885E-1,-3.648423031E-2
3.613944661E1,-2.326868325E-1,-1.368824393E-1,-4.500609636E-2
3.615930843E1,-1.868818253E-1,-9.587097168E-2,-3.701684624E-2
3.617920823E1,-1.170424819E-1,-6.491263956E-2,-1.411433797E-2
3.619912130E1,-3.228987753E-2,-2.496639825E-2,-1.264964230E-3
3.621901786E1,4.287562892E-2,1.338198967E-2,-6.058512721E-3
3.623890234E1,1.116497368E-1,3.368799388E-2,-1.624480449E-2
3.625876771E1,1.776941866E-1,4.167724028E-2,-1.997311972E-2
3.627866010E1,2.512618303E-1,7.310161740E-2,-7.656362373E-3
3.629856349E1,3.290904164E-1,1.376147866E-1,1.471353136E-2
3.631846588E1,4.021254778E-1,1.898112148E-1,3.015941009E-2
3.633834427E1,4.633763731E-1,1.876807362E-1,3.388772532E-2
3.635825255E1,5.119110346E-1,1.487997323E-1,2.696371078E-2
3.637816593E1,5.465311408E-1,1.253646165E-1,2.536586113E-2
3.639806520E1,5.764242411E-1,1.498649716E-1,3.015941009E-2
3.641792588E1,5.977289081E-1,2.095845938E-1,3.708342463E-2
3.643783453E1,6.110442877E-1,2.367480397E-1,4.720313847E-2
3.645772578E1,6.142399907E-1,2.041918486E-1,6.105116755E-2
3.647760343E1,6.067833900E-1,1.605173051E-1,7.702966034E-2
3.649748161E1,5.913375020E-1,1.631803811E-1,9.733566642E-2
3.651737427E1,5.689675808E-1,2.186390758E-1,1.079879999E-1
3.653725458E1,5.289547443E-1,2.687050402E-1,1.063901484E-1
3.655715750E1,4.804866612E-1,2.756290436E-1,9.733566642E-2
3.657705651E1,4.362129271E-1,2.553896308E-1,7.916013151E-2
3.659693312E1,3.914731443E-1,2.447372824E-1,6.371425092E-2
3.661682802E1,3.397427499E-1,2.596505582E-1,5.146406963E-2
3.663674791E1,2.832854092E-1,2.777595222E-1,4.720313847E-2
3.665659937E1,2.288919389E-1,2.798899710E-1,5.199668556E-2
3.667652349E1,1.691723168E-1,2.617810071E-1,5.412715301E-2
3.669641880E1,9.993217140E-2,2.340849638E-1,5.679023638E-2
3.671631286E1,3.275591508E-2,2.186390758E-1,5.572500080E-2
3.673617458E1,-3.601819277E-2,1.956699938E-1,4.347482324E-2
3.675612906E1,-1.021292135E-1,1.482671201E-1,4.347482324E-2
3.677597213E1,-1.447385401E-1,1.119826213E-1,4.826837033E-2
3.679584021E1,-1.681736708E-1,9.813459218E-2,6.531210244E-2
3.681576380E1,-1.809564531E-1,8.908011019E-2,8.615072072E-2
3.683565005E1,-1.777607650E-1,5.552527308E-2,1.047922969E-1
3.685552849E1,-1.671084315E-1,-1.005313639E-2,1.165098622E-1
3.687543651E1,-1.713693589E-1,-7.130403817E-2,1.031944528E-1
3.689533130E1,-1.847513467E-1,-8.575125784E-2,7.596442848E-2
3.691519515E1,-1.847513467E-1,-5.852124095E-2,5.838808417E-2
3.693514843E1,-1.564560980E-1,-5.426030606E-2,4.880098626E-2
3.695497234E1,-1.271621883E-1,-1.038602218E-1,4.134435579E-2
3.697488823E1,-1.085206121E-1,-1.624480337E-1,3.708342463E-2
3.699476312E1,-8.608414233E-2,-1.758300215E-1,4.027912393E-2
3.701467234E1,-6.424686313E-2,-1.549914032E-1,4.560529068E-2
3.703456588E1,-4.667052254E-2,-1.379476786E-1,5.732285231E-2
3.705445698E1,-1.950708032E-2,-1.390129030E-1,7.223611325E-2
3.707434135E1,3.462007269E-3,-1.592523307E-1,9.094426781E-2
3.709423672E1,1.517957076E-2,-1.705038548E-1,1.053249165E-1
3.711416708E1,1.944050193E-2,-1.539261788E-1,1.143793985E-1
3.713402635E1,7.190322969E-3,-1.336867511E-1,1.106510833E-1
3.715389562E1,-2.057231218E-2,-1.240996495E-1,9.307473898E-2
3.717380338E1,-4.240959138E-2,-1.304910481E-1,8.242240548E-2
3.719367463E1,-5.945331976E-2,-1.517957002E-1,8.188978583E-2
3.721357369E1,-7.756228000E-2,-1.747647971E-1,9.254211932E-2
3.723347390E1,-8.768199384E-2,-1.822214276E-1,8.455286920E-2
3.725336125E1,-1.069227681E-1,-1.544587910E-1,3.868127242E-2
3.727322270E1,-1.378145218E-1,-1.315562725E-1,-1.085206121E-2
3.729313093E1,-1.495320797E-1,-1.315562725E-1,-4.500609636E-2
3.731304234E1,-1.394123733E-1,-1.320888996E-1,-5.512581021E-2
3.733290864E1,-1.165098622E-1,-1.155777797E-1,-6.684337556E-2
3.735281130E1,-9.680305421E-2,-8.521863818E-2,-8.388710022E-2
3.737271307E1,-7.276873291E-2,-6.544525176E-2,-9.240896255E-2
3.739260474E1,-4.294220731E-2,-5.692338943E-2,-1.057909578E-1
3.741247359E1,-2.003969625E-2,-5.639077350E-2,-1.063235700E-1
3.743238651E1,1.797580742E-3,-3.828181326E-2,-8.655018359E-2
3.745230343E1,3.808208182E-2,2.942706272E-2,-5.832150951E-2
3.747218187E1,7.323476672E-2,1.216362938E-1,-3.967992961E-2
3.749210229E1,8.814803511E-2,1.754305661E-1,-3.488638252E-2
3.751194343E1,9.294158220E-2,1.498649716E-1,-3.169068322E-2
3.753184323E1,1.073888019E-1,9.387365729E-2,-1.944050193E-2
3.755172833E1,1.318891644E-1,6.671021879E-2,-1.264964230E-3
3.757163338E1,1.579873711E-1,8.961272985E-2,2.270277962E-2
3.759148791E1,1.776941866E-1,1.456040442E-1,4.347482324E-2
3.761140807E1,1.980001926E-1,1.775610298E-1,5.465976894E-2
3.763131854E1,2.198374718E-1,1.562563628E-1,6.477948278E-2
3.765118359E1,2.427399755E-1,1.125152409E-1,6.797518581E-2
3.767109463E1,2.624467909E-1,8.748225868E-2,6.051855162E-2
3.769098130E1,2.677729428E-1,9.760197252E-2,4.187697172E-2
3.771083979E1,2.688381970E-1,1.264298409E-1,1.364829857E-2
3.773076724E1,2.656424940E-1,1.397452503E-1,-6.591129117E-3
3.775062208E1,2.587184608E-1,1.349517107E-1,-9.786828421E-3
3.777052927E1,2.576532364E-1,1.370821744E-1,-9.786828421E-3
3.779043161E1,2.555227578E-1,1.557237506E-1,-8.721595630E-3
3.781031541E1,2.464682907E-1,1.546585262E-1,4.061201122E-3
3.783018729E1,2.400768995E-1,1.237667650E-1,2.856156044E-2
3.785013000E1,2.150439173E-1,8.801487833E-2,4.667052254E-2
3.787002791E1,1.803572625E-1,6.457975507E-2,5.572500080E-2
3.788991453E1,1.441393495E-1,4.061200842E-2,5.572500080E-2
3.790978526E1,9.886693954E-2,2.197043039E-3,6.531210244E-2
3.792966937E1,7.003907114E-2,-2.496639825E-2,8.774857223E-2
3.794955546E1,5.832150951E-2,-2.869471535E-2,1.191729456E-1
3.796944073E1,4.873441160E-2,-3.402087837E-2,1.474016160E-1
3.798931859E1,3.808208182E-2,-5.053199083E-2,1.649779677E-1
3.800921135E1,2.636451647E-2,-5.319507420E-2,1.697715074E-1
3.802910291E1,5.059856921E-3,-4.147751257E-2,1.644453406E-1
3.804898020E1,-2.589847706E-2,-1.804238372E-2,1.633801162E-1
3.806887968E1,-5.679023638E-2,2.623136342E-2,1.655105799E-1
3.808876953E1,-8.129059523E-2,6.884068251E-2,1.639127284E-1
3.810867661E1,-1.031944528E-1,7.789516449E-2,1.543256342E-1
3.812856036E1,-1.133141592E-1,5.286218971E-2,1.426080763E-1
3.814846682E1,-9.840089828E-2,1.071890723E-2,1.553908736E-1
3.816833968E1,-8.608414233E-2,-8.987903595E-3,1.783599555E-1
3.818823458E1,-1.053249165E-1,4.327509087E-3,1.724345982E-1
3.820812932E1,-1.362166703E-1,1.444722246E-2,1.388797611E-1
3.822802948E1,-1.585865617E-1,-3.561872989E-2,1.197055578E-1
3.824792484E1,-1.468690038E-1,-1.246322617E-1,1.569887102E-1
3.826779698E1,-1.165098622E-1,-2.168415040E-1,2.140452564E-1
3.828770833E1,-8.927984536E-2,-3.106485903E-1,2.758953571E-1
3.830758604E1,-5.306192115E-2,-3.282249272E-1,3.057218790E-1
3.832746864E1,-2.995967865E-3,-2.861482203E-1,3.094501793E-1
3.834734994E1,3.275591508E-2,-2.659088075E-1,2.966673970E-1
3.836725901E1,3.115806542E-2,-2.904091477E-1,2.679060996E-1
3.838717198E1,1.145125460E-2,-3.106485903E-1,2.326868325E-1
3.840706234E1,-3.328853054E-4,-2.770937383E-1,1.980667710E-1
3.842696083E1,-2.589847706E-2,-2.067217827E-1,1.601844132E-1
3.844685380E1,-6.318163127E-2,-1.304910481E-1,1.101184636E-1
3.846675229E1,-9.467258304E-2,-7.563154399E-2,5.625762045E-2
3.848659869E1,-1.015966013E-1,-7.403369248E-2,9.387366474E-3
3.850655271E1,-8.288844675E-2,-1.315562725E-1,-1.031944528E-2
3.852641151E1,-6.211639941E-2,-1.454043090E-1,-2.330197254E-3
3.854628843E1,-5.785546824E-2,-8.202294260E-2,4.061201122E-3
3.856621218E1,-7.862751186E-2,-3.135779873E-2,-2.862813650E-3
3.858609614E1,-1.090532318E-1,7.523208391E-3,-3.488638252E-2
3.860598937E1,-1.319557428E-1,7.363422960E-2,-7.802832127E-2
3.862584932E1,-1.308905035E-1,1.269624680E-1,-1.153780520E-1
3.864576422E1,-1.074553803E-1,9.493889660E-2,-1.388131827E-1
3.866563781E1,-6.211639941E-2,-2.762948163E-2,-1.446719617E-1
3.868553781E1,-2.995967865E-3,-1.955368370E-1,-1.148454323E-1
3.870543901E1,6.151720881E-2,-2.898765504E-1,-3.222329915E-2
3.872532369E1,1.212368309E-1,-1.848845035E-1,3.495295718E-2
3.874520677E1,1.921414137E-1,3.262276063E-3,6.477948278E-2
3.876510474E1,2.688381970E-1,8.641702682E-2,6.158378348E-2
3.878499073E1,3.429384530E-1,4.434032366E-2,4.454005510E-2
3.880488281E1,4.218322635E-1,-6.857437547E-3,1.790923066E-2
3.882479390E1,4.911389947E-1,3.049229458E-2,-1.411433797E-2
3.884464198E1,5.422701836E-1,1.328212470E-1,-3.062544949E-2
3.886456474E1,5.774894357E-1,2.617810071E-1,-3.115806542E-2
3.888443593E1,5.774894357E-1,3.513271809E-1,-3.648423031E-2
3.890435760E1,5.396071076E-1,3.603816330E-1,-4.553871229E-2
3.892432187E1,4.943346977E-1,3.582511842E-1,-6.151720881E-2
3.894414317E1,4.372781515E-1,3.854146302E-1,-8.282186836E-2
3.896402755E1,3.567864895E-1,4.169055820E-1,-9.666989744E-2
3.898388802E1,2.768274248E-1,4.387428463E-1,-9.880036116E-2
3.900383520E1,2.027937323E-1,4.307536185E-1,-8.175663650E-2
3.902366151E1,1.334870160E-1,4.041227698E-1,-6.204982474E-2
3.904357244E1,6.790860742E-2,3.763601482E-1,-6.098458916E-2
3.906347239E1,3.462007269E-3,3.561207056E-1,-7.856093347E-2
3.908336661E1,-5.892070010E-2,3.358812928E-1,-9.986559302E-2
3.910325177E1,-1.005313694E-1,3.044569194E-1,-1.196389869E-1
3.912312729E1,-1.266295761E-1,2.697702646E-1,-1.436067224E-1
3.914307083E1,-1.340862066E-1,2.500634491E-1,-1.649113894E-1
3.916290692E1,-1.186403260E-1,2.239652425E-1,-1.840855777E-1
3.918281406E1,-8.661676198E-2,1.637129933E-1,-1.739658713E-1
3.920271192E1,-4.933360592E-2,9.600412846E-2,-1.494655013E-1
3.922261515E1,-2.217016183E-2,6.830807030E-2,-1.191063672E-1
3.924247229E1,-8.322132751E-3,7.363422960E-2,-7.430000603E-2
3.926237500E1,1.997311920E-4,8.961272985E-2,-2.316881903E-2
3.928227218E1,5.059856921E-3,1.066564545E-1,1.631138101E-2
3.930221588E1,1.145125460E-2,9.280842543E-2,5.093145370E-2
3.932210593E1,1.624480449E-2,6.138405204E-2,6.797518581E-2
3.934193817E1,1.517957076E-2,2.729659714E-2,6.211639941E-2
3.936182875E1,2.849498391E-2,-3.129122080E-3,4.826837033E-2
3.938175609E1,5.033225939E-2,-1.484668534E-2,4.134435579E-2
3.940163010E1,6.045197323E-2,-1.484668534E-2,3.495295718E-2
3.942149760E1,6.737598777E-2,-2.922733128E-2,1.897446252E-2
3.944141906E1,7.216953486E-2,-7.776200771E-2,5.659050308E-3
3.946128406E1,8.015878499E-2,-1.358172148E-1,9.387366474E-3
3.948119713E1,9.027849883E-2,-1.555240154E-1,1.631138101E-2
