"Time (s)","Linear Acceleration x (m/s^2)","Linear Acceleration y (m/s^2)","Linear Acceleration z (m/s^2)"
5.682340400E-2,-2.893886566E-1,1.347036362E-1,-5.470335484E-1
7.675845600E-2,-5.771160126E-3,1.388587952E-1,-5.254774690E-1
9.660371600E-2,2.778148651E-1,1.181154251E-1,-4.250685573E-1
1.164947060E-1,4.303002357E-1,-4.412937164E-2,-4.467504919E-1
1.363892370E-1,4.294905663E-1,-1.501560211E-2,-3.751544654E-1
1.562774660E-1,3.528389931E-1,1.269588470E-1,-3.585557938E-1
1.761778830E-1,2.548789978E-1,1.706762314E-1,-3.284576237E-1
1.960860600E-1,2.573928833E-1,7.603645325E-2,-2.980409265E-1
2.159573100E-1,2.481083870E-1,-4.436683655E-2,-3.292044103E-1
2.358608520E-1,1.505184174E-1,1.113100052E-1,-4.400779009E-1
2.557496020E-1,1.065807343E-1,3.529558182E-1,-5.792900920E-1
2.756427270E-1,1.284542084E-1,3.722915649E-1,-6.063551903E-1
2.955087160E-1,1.502943039E-1,2.139673233E-1,-6.372342706E-1
3.154011120E-1,1.596736908E-1,3.344841003E-1,-6.862637401E-1
3.353124140E-1,2.488980293E-1,6.113319397E-1,-6.343292594E-1
3.552011640E-1,3.012332916E-1,7.218208313E-1,-5.683196187E-1
3.751071020E-1,3.529968262E-1,6.141681671E-1,-6.275390387E-1
3.950008520E-1,4.545946121E-1,6.325712204E-1,-5.818722248E-1
4.148966850E-1,2.607960701E-1,7.739725113E-1,-4.690312445E-1
4.347632990E-1,3.918218613E-2,5.358018875E-1,-2.859823704E-1
4.546559560E-1,-1.080389023E-1,1.453895569E-1,-1.134415567E-1
4.745484040E-1,-2.098011971E-1,-1.111612320E-1,-9.990522265E-2
4.944282990E-1,-2.620410919E-1,-3.298625946E-1,-1.937453449E-1
5.143482470E-1,-2.224445343E-1,-6.384592056E-1,-4.291688502E-1
5.342499140E-1,-2.995729446E-1,-9.328885078E-1,-5.116868019E-1
5.541504870E-1,-4.751064777E-1,-1.174812317E0,-5.406745672E-1
5.740207990E-1,-5.871181488E-1,-1.370479107E0,-5.652339458E-1
5.938750180E-1,-6.927447319E-1,-1.489224911E0,-5.669808388E-1
6.137900700E-1,-6.078033447E-1,-1.530912876E0,-5.625501871E-1
6.336799660E-1,-5.404906273E-1,-1.450216770E0,-4.930002987E-1
6.535700700E-1,-2.586679459E-1,-1.646193504E0,-4.440688789E-1
6.734667370E-1,3.863334656E-3,-1.103552341E0,-2.139601707E-1
6.933310600E-1,1.603169441E-1,5.822753906E-2,7.112622261E-4
7.132383520E-1,8.386425972E-1,8.859767914E-1,1.578297913E-1
7.331189240E-1,2.033423901E0,1.289609909E0,5.901885033E-1
7.530265810E-1,2.921149254E0,1.786081314E0,1.282487273E0
7.729062680E-1,2.962911606E0,2.178313255E0,1.306406975E0
7.928090810E-1,2.451365948E0,2.103666306E0,1.004347920E0
8.126986640E-1,1.774920940E0,1.743968964E0,1.009963036E0
8.325941850E-1,1.307939053E0,1.192799568E0,8.798123598E-1
8.524612160E-1,1.138944626E0,5.601234436E-1,4.842423797E-1
8.723488200E-1,8.768711090E-1,4.620075226E-2,2.334554791E-1
8.922948620E-1,5.722069740E-1,-4.241189957E-1,5.775189400E-2
9.121518410E-1,1.031689644E-1,-9.269628525E-1,-3.543430567E-2
9.320428310E-1,-4.365940094E-1,-1.449547768E0,-3.228783607E-2
9.519278310E-1,-9.035925865E-1,-1.846198082E0,-1.337689161E-2
9.718073620E-1,-1.234191656E0,-2.062517166E0,-6.102323532E-2
9.917278310E-1,-1.380626202E0,-2.087697506E0,-5.658847094E-2
1.011616164E0,-1.272657156E0,-2.001556396E0,1.380246878E-2
1.031470174E0,-1.029765368E0,-1.590108871E0,1.705146432E-1
1.051368924E0,-6.512722969E-1,-1.046758175E0,4.346114397E-1
1.071287727E0,-1.240444183E-2,-5.303802490E-1,9.124035835E-1
1.091147258E0,5.387587547E-1,-2.963829041E-2,1.406733751E0
1.111087987E0,7.913088799E-1,8.234615326E-1,1.785776377E0
1.130941008E0,1.017151356E0,1.358958244E0,1.934987307E0
1.150842414E0,1.056202888E0,1.542420387E0,1.923285842E0
1.170740852E0,9.647245407E-1,1.620407104E0,1.733734608E0
1.190616477E0,1.018782139E0,1.593987465E0,1.406164646E0
1.210488560E0,1.177663803E0,1.199677467E0,9.837430120E-1
1.230399237E0,1.084658146E0,4.418249130E-1,6.132968068E-1
1.250289341E0,5.430774689E-1,2.896308899E-3,5.138758421E-1
1.270181529E0,-1.027383804E-1,-3.278665543E-1,2.225495577E-1
1.290124966E0,-5.191454887E-1,-6.620583534E-1,-8.058142662E-2
1.310026164E0,-7.328763008E-1,-9.494538307E-1,-1.945838332E-1
1.329870070E0,-7.832579613E-1,-1.120211601E0,-2.992199361E-1
1.349754185E0,-7.434439659E-1,-1.038952351E0,-3.354631960E-1
1.369648039E0,-7.712109089E-1,-9.763770103E-1,-3.435747623E-1
1.389517049E0,-7.755973339E-1,-8.217616081E-1,-1.599280834E-1
1.409423404E0,-5.643906593E-1,-4.713206291E-1,-2.214723825E-2
1.429299185E0,-1.999554634E-1,2.157878876E-2,-1.071154773E-1
1.449212727E0,1.831130981E-1,4.206676483E-1,-5.837816000E-2
1.469087310E0,5.423164368E-1,7.455577850E-1,1.527428627E-3
1.488981008E0,7.510395050E-1,1.096980095E0,-2.871749401E-1
1.508882831E0,7.827062607E-1,1.259425163E0,-4.905636311E-1
1.528779289E0,7.210030556E-1,1.183835983E0,-4.803099632E-1
1.548642883E0,6.657156944E-1,9.706840515E-1,-5.686696768E-1
1.568548352E0,5.684266090E-1,6.675853729E-1,-6.437290907E-1
1.588459497E0,3.141655922E-1,4.424047470E-1,-6.559553146E-1
1.608326477E0,1.903343201E-2,1.778516769E-1,-7.460436821E-1
1.628264081E0,-2.233104706E-1,-7.591247559E-2,-7.746230364E-1
1.648165174E0,-4.930438995E-1,-4.326982498E-1,-7.376267910E-1
1.668029393E0,-7.499117851E-1,-7.132558823E-1,-7.133615017E-1
1.687904237E0,-8.240671158E-1,-9.186968803E-1,-8.625460863E-1
1.707775174E0,-8.002974987E-1,-1.103148460E0,-9.477115273E-1
1.727675799E0,-6.014916897E-1,-1.244851112E0,-9.533215761E-1
1.747548195E0,-3.442368507E-1,-1.347942352E0,-9.813735485E-1
1.767444758E0,-1.265115738E-1,-1.022462845E0,-9.669024944E-1
1.787334758E0,7.921600342E-2,-4.111881256E-1,-9.221357107E-1
1.807232362E0,5.006380081E-1,-8.295631409E-2,-9.621702433E-1
1.827136477E0,7.885932922E-1,3.153133392E-1,-7.761902213E-1
1.847058924E0,8.506884575E-1,1.010370255E0,-6.362590790E-1
1.866927727E0,9.583511353E-1,1.446447372E0,-6.015245914E-1
1.886819914E0,1.154578209E0,1.593904495E0,-3.252311647E-1
1.906681841E0,1.211739063E0,1.668460846E0,-3.092797995E-1
1.926593039E0,9.961462021E-1,1.802072525E0,-4.148962498E-1
1.946482258E0,7.246847153E-1,1.610567093E0,-3.283544779E-1
1.966373247E0,4.041428566E-1,1.164498329E0,-2.081470788E-1
1.986265070E0,1.089825630E-1,7.950477600E-1,-2.559524179E-1
2.006167102E0,-1.898703575E-1,2.956819534E-1,-2.389512956E-1
2.026082674E0,-3.962087631E-1,-2.815828323E-1,-1.744559407E-1
2.045918560E0,-5.509417057E-1,-8.232526779E-1,-3.013043702E-1
2.065831893E0,-7.038679123E-1,-1.285023212E0,-4.467791319E-1
2.085707362E0,-7.738156319E-1,-1.755452156E0,-5.986063480E-1
2.105585747E0,-8.133108616E-1,-2.181052208E0,-6.825751066E-1
2.125475174E0,-7.416005135E-1,-2.191931725E0,-5.927737951E-1
2.145368768E0,-6.912794113E-1,-1.931322575E0,-4.784370661E-1
2.165261893E0,-6.208345890E-1,-1.504105568E0,-4.365237355E-1
2.185146424E0,-7.205293179E-1,-5.139141083E-1,-3.568044007E-1
2.205121268E0,-6.948065758E-1,1.059473038E0,-4.475433826E-1
2.224963247E0,-2.590382099E-1,1.592344284E0,-5.227698684E-1
2.244820070E0,1.404941082E-1,1.599338531E0,-1.945425570E-1
2.264705174E0,4.962601662E-1,1.723975182E0,2.717040181E-1
2.284611424E0,5.702738762E-1,1.822608948E0,4.702444375E-1
2.304489445E0,5.838885307E-1,1.970579147E0,4.905474484E-1
2.324390904E0,5.754075050E-1,2.033670425E0,5.117334127E-1
2.344300018E0,7.504391670E-1,1.756807327E0,4.831286371E-1
2.364212362E0,8.618474007E-1,1.407012939E0,3.319733739E-1
2.384130747E0,7.988615036E-1,9.493522644E-1,1.678006798E-1
2.404061633E0,6.523528099E-1,5.237751007E-1,1.531522721E-1
2.423881893E0,5.585670471E-1,1.450052261E-1,3.946664929E-2
2.443744133E0,2.969281673E-1,-1.757469177E-1,5.960851908E-2
2.463627310E0,-3.561997414E-2,-5.788574219E-1,3.771111369E-3
2.483520695E0,-3.443710804E-1,-9.761009216E-1,-1.433899552E-1
2.503423977E0,-4.638037682E-1,-1.275074005E0,-1.942683905E-1
2.523326581E0,-4.596018791E-1,-1.410235405E0,-3.013308346E-1
2.543201633E0,-4.237844944E-1,-1.432536125E0,-3.148264885E-1
2.563096685E0,-4.934678078E-1,-1.478135586E0,-2.640340626E-1
2.583004393E0,-3.832309246E-1,-1.474871159E0,-1.245584488E-1
2.602875070E0,-3.768682480E-2,-1.306213856E0,1.836627722E-3
2.622774341E0,2.572016716E-1,-7.315530777E-1,3.548061848E-2
2.642683143E0,5.058956146E-1,-1.613340378E-1,1.886271089E-1
2.662570018E0,8.143606186E-1,3.146171570E-3,5.936477184E-1
2.682440695E0,9.400258064E-1,9.003257751E-2,8.197647333E-1
2.702348872E0,8.964710236E-1,1.952905655E-1,9.064376354E-1
2.722239602E0,1.172213078E0,3.949193954E-1,1.114479542E0
2.742146060E0,1.486934185E0,6.577558517E-1,1.140779257E0
2.762021633E0,1.552065372E0,7.349996567E-1,1.024333596E0
2.781882987E0,1.350599289E0,6.297359467E-1,1.003733873E0
2.801780799E0,1.012661457E0,4.077720642E-1,8.488682508E-1
2.821695331E0,8.984470367E-1,6.800556183E-2,6.057233810E-1
2.841579289E0,8.107762337E-1,-2.300739288E-1,4.822276533E-1
2.861454966E0,6.245579720E-1,-5.090351105E-1,2.655402720E-1
2.881361164E0,3.461737633E-1,-7.292513847E-1,1.947998069E-2
2.901269497E0,8.047342300E-2,-7.789545059E-1,2.936646342E-3
2.921159497E0,-5.418968201E-2,-9.137897491E-1,-4.405371472E-2
2.941052831E0,-1.287188530E-1,-1.016001701E0,-9.169784188E-2
2.960934393E0,-2.033305168E-1,-1.039015293E0,-9.206975251E-2
2.980825070E0,-2.835850716E-1,-9.944949150E-1,-2.601576596E-2
3.000720122E0,-3.887977600E-1,-8.872723579E-1,1.881109923E-1
3.020595695E0,-3.878502846E-1,-6.663026810E-1,1.488541961E-1
3.040482779E0,-2.534785271E-1,-2.682962418E-1,2.249618620E-1
3.060390227E0,-2.112007141E-1,2.290420532E-1,3.458449543E-1
3.080277258E0,-1.184773445E-1,7.696733475E-1,3.123807907E-1
3.100180018E0,-1.025056839E-2,1.180261612E0,4.817936420E-1
3.120073404E0,2.409620285E-1,1.453458786E0,7.487052679E-1
3.139936008E0,5.429983139E-1,1.750086784E0,8.350464106E-1
3.159814549E0,7.047753334E-1,1.869617462E0,8.979262114E-1
3.179718091E0,7.458643913E-1,1.994548798E0,7.821596861E-1
3.199624810E0,7.148356438E-1,2.034167290E0,5.904762149E-1
3.219500070E0,4.774284363E-1,1.829415321E0,6.813393235E-1
3.239391372E0,1.305036545E-1,1.413899422E0,6.236081123E-1
3.259302154E0,-5.265808105E-2,9.688482285E-1,3.362388611E-1
3.279169706E0,-1.818919182E-1,5.392608643E-1,9.854625165E-2
3.299089497E0,-3.135528564E-1,9.262847900E-2,3.118807077E-2
3.318947154E0,-4.959290028E-1,-4.089031219E-1,-1.019528806E-1
3.338859185E0,-7.708811760E-1,-9.040813446E-1,-2.435565889E-1
3.358735956E0,-9.427855015E-1,-1.413212299E0,-3.937259316E-1
3.378649497E0,-9.663801193E-1,-1.776051998E0,-4.785226285E-1
3.398541164E0,-9.559137821E-1,-1.958203316E0,-4.543555975E-1
3.418397206E0,-9.027602673E-1,-1.895695686E0,-4.698384106E-1
3.438314081E0,-8.180942535E-1,-1.525275707E0,-4.108805358E-1
3.458210852E0,-5.159351826E-1,-1.035190105E0,-3.602565229E-1
3.478129549E0,-5.062294006E-2,-3.497905731E-1,-3.612163663E-1
3.497970695E0,4.279289246E-1,3.008508682E-1,-2.399032414E-1
3.517879706E0,1.114542007E0,6.495094299E-1,-1.403148472E-1
3.537797518E0,1.580979824E0,8.944435120E-1,-8.592456579E-3
3.557659133E0,1.613960266E0,1.020754814E0,5.443376303E-2
3.577548560E0,1.394005299E0,1.020561218E0,1.061777771E-1
3.597424602E0,1.091084480E0,8.755235672E-1,2.352248728E-1
3.617323664E0,7.288417816E-1,5.639657974E-1,2.698942423E-1
3.637204654E0,4.393768311E-1,1.337947845E-1,1.963197589E-1
3.657090695E0,1.518626213E-1,-3.841733932E-1,1.239309311E-1
3.677012206E0,2.897739410E-3,-6.612396240E-1,-2.880012989E-2
3.696885122E0,-1.071491241E-1,-8.936433792E-1,-2.405056357E-1
3.716768924E0,-1.231613159E-1,-1.002388954E0,-4.199681282E-1
3.736672206E0,-1.323714256E-1,-1.065442085E0,-5.284731388E-1
3.756568352E0,-1.147217751E-1,-8.127260208E-1,-4.484071732E-1
3.776441320E0,-1.357607841E-1,-3.593845367E-1,-3.005017042E-1
3.796339133E0,-9.367561340E-2,-1.313695908E-1,-3.176538944E-1
3.816267674E0,1.113133430E-1,-1.067438126E-1,-2.653392553E-1
3.836121841E0,3.298082352E-1,4.816055298E-2,1.608967781E-2
3.856066424E0,2.973937988E-1,1.097459793E-1,8.886665106E-2
3.875917362E0,1.545190811E-1,1.353025436E-1,7.865041494E-2
3.895779549E0,2.544927597E-2,1.352968216E-1,2.715643048E-1
3.915700956E0,1.013216972E-1,1.557149887E-1,3.203819990E-1
3.935577518E0,3.109793663E-1,2.315864563E-1,2.732366920E-1
3.955457674E0,4.868364334E-1,2.380809784E-1,1.118770242E-1
3.975376372E0,4.652199745E-1,1.254806519E-1,1.112899184E-1
3.995236789E0,3.199009895E-1,7.247161865E-2,1.946353316E-1
4.015142102E0,1.722602844E-1,2.431201935E-1,2.560929060E-1
4.035076737E0,3.126010895E-1,3.310070038E-1,1.708223224E-1
4.054924758E0,7.100224495E-1,2.131710052E-1,7.818210125E-2
4.074797258E0,9.374451637E-1,9.337615967E-2,6.354612112E-2
4.094710331E0,9.586987495E-1,1.070404053E-2,-4.896974564E-2
4.114583872E0,8.311367035E-1,-1.323509216E-2,6.236577034E-2
4.134458560E0,6.399874687E-1,-1.998023987E-1,6.670182943E-2
4.154382570E0,5.208721161E-1,-4.731693268E-1,-2.019973397E-1
4.174250070E0,4.162697792E-1,-5.615034103E-1,-2.951220572E-1
4.194158977E0,2.417931557E-1,-4.725770950E-1,-3.427427709E-1
4.214060331E0,-1.351690292E-2,-6.092147827E-1,-5.784615874E-1
4.233917466E0,-9.235095978E-2,-8.364820480E-1,-5.827669501E-1
4.253833352E0,-1.022238731E-1,-9.304089546E-1,-2.209692001E-1
4.273711945E0,-3.180627823E-1,-9.796266556E-1,-1.739601493E-1
4.293598768E0,-6.045150757E-1,-1.020861149E0,-1.400080919E-1
4.313484497E0,-1.030148983E0,-1.077733040E0,2.068818212E-1
4.333371685E0,-1.325992584E0,-1.024422646E0,4.551823139E-1
4.353295435E0,-1.168721676E0,-7.918181419E-1,3.885660172E-1
4.373158716E0,-1.052829504E0,-3.676195145E-1,3.714374006E-1
4.393091945E0,-1.049761534E0,1.048784256E-1,3.495279551E-1
4.412983768E0,-9.981777668E-1,7.183837891E-1,2.929829359E-1
4.432864185E0,-9.393122196E-1,1.205998421E0,2.204312235E-1
4.452740174E0,-6.599307060E-1,1.439425468E0,1.280528754E-1
4.472621320E0,-2.873826027E-1,1.473775864E0,4.504212737E-2
4.492542414E0,-3.268051147E-2,1.420955658E0,9.428921342E-2
4.512436997E0,1.024174690E-1,1.357074738E0,1.646109819E-1
4.532322414E0,2.270221710E-1,1.397562981E0,1.540956497E-1
4.552226581E0,3.199739456E-1,1.327638626E0,2.704405189E-1
4.572115799E0,4.160804749E-1,1.079807281E0,2.655794024E-1
4.592009706E0,5.114393234E-1,9.045829773E-1,2.619924843E-1
4.611866685E0,5.608406067E-1,8.481674194E-1,1.983803213E-1
4.631789602E0,6.892633438E-1,7.919740677E-1,1.292444766E-1
4.651667727E0,6.602244377E-1,6.363973618E-1,1.085230410E-1
4.671534341E0,3.717784882E-1,6.613969803E-1,1.816982627E-1
4.691444654E0,6.866884232E-2,7.448902130E-1,1.497523189E-1
4.711313404E0,2.443695068E-2,6.224231720E-1,8.655458689E-3
4.731209289E0,2.172384262E-1,4.766521454E-1,-8.386951685E-2
4.751122310E0,3.435025215E-1,3.107471466E-1,-1.279762685E-1
4.771003143E0,2.741599083E-1,1.287269592E-1,-1.153185666E-1
4.790891216E0,1.223888397E-1,-1.619892120E-1,-7.243597507E-2
4.810802206E0,8.852958679E-3,-3.728485107E-1,-7.665771246E-2
4.830691477E0,-8.194923401E-3,-4.594907761E-1,-1.496058255E-1
4.850572362E0,1.193137169E-1,-5.598902702E-1,-2.445046604E-1
4.870439706E0,2.480578423E-1,-5.740385056E-1,-1.994129121E-1
4.890324133E0,2.025885582E-1,-3.921623230E-1,-7.236050069E-2
4.910252727E0,1.912546158E-2,-9.743213654E-2,9.472601116E-2
4.930127883E0,-2.608656883E-1,5.189323425E-2,3.875274956E-1
4.950018612E0,-2.927966118E-1,6.585311890E-2,5.858857036E-1
4.969915747E0,-3.929963112E-1,3.162765503E-1,6.989738345E-1
4.989799445E0,-6.712412834E-1,5.339860916E-1,8.803462982E-1
5.009698560E0,-8.648552895E-1,5.525999069E-1,9.248199463E-1
5.029592727E0,-9.437141418E-1,6.927709579E-1,8.489530683E-1
5.049477049E0,-1.179470539E0,1.041065216E0,8.874726295E-1
5.069340695E0,-1.413926125E0,1.183955193E0,6.804630756E-1
5.089243299E0,-1.572190046E0,1.113748550E0,5.106214285E-1
5.109132674E0,-1.623709917E0,9.221019745E-1,3.551433682E-1
5.129061372E0,-1.609954119E0,6.623830795E-1,2.257478237E-2
5.148928508E0,-1.501117706E0,6.317777634E-1,-2.173814178E-1
5.168807570E0,-1.263442039E0,5.409603119E-1,-3.961809278E-1
5.188732883E0,-7.552609444E-1,3.193693161E-1,-5.655238032E-1
5.208610643E0,-3.786516190E-1,1.141428947E-1,-6.841828823E-1
5.228475695E0,-8.491992950E-3,-2.365565300E-1,-8.071778417E-1
5.248397518E0,9.425115585E-1,-6.684069633E-1,-1.056374311E0
5.268313143E0,1.920621395E0,-1.073989868E0,-1.266240358E0
5.288190279E0,2.294528484E0,-1.246500015E0,-1.307084084E0
5.308094185E0,2.124140263E0,-1.375262260E0,-1.166582584E0
5.327952622E0,1.954689980E0,-1.466634274E0,-9.193358421E-1
5.347860643E0,2.083111763E0,-1.526172161E0,-7.720313072E-1
5.367735852E0,2.252885818E0,-1.589776516E0,-6.859037876E-1
5.387630018E0,2.202837944E0,-1.557660103E0,-6.513631940E-1
5.407496841E0,1.860263824E0,-1.256061077E0,-5.366816521E-1
5.427428143E0,1.384696007E0,-9.090561867E-1,-5.018925071E-1
5.447297779E0,1.113018036E0,-8.321175575E-1,-3.880754411E-1
5.467206268E0,9.607791901E-1,-8.590173721E-1,-3.464447260E-1
5.487083508E0,7.304115295E-1,-5.658736229E-1,-4.289813340E-1
5.506978456E0,3.741531372E-1,-2.548871040E-1,-4.982103407E-1
5.526877831E0,5.851888657E-2,-2.893223763E-1,-4.062407911E-1
5.546779914E0,-2.418584824E-1,-3.867440224E-1,-1.344364882E-1
5.566636893E0,-5.270752907E-1,-3.700728416E-1,-1.316959858E-1
5.586525070E0,-5.829839706E-1,-3.428487778E-1,-1.274578273E-1
5.606421945E0,-3.792057037E-1,-2.902698517E-1,-6.021887064E-2
5.626342883E0,-1.486887932E-1,-2.406501770E-1,-1.319446564E-1
5.646247570E0,-6.881093979E-2,-2.631130219E-1,-1.645413637E-1
5.666149445E0,-1.931619644E-2,-1.883306503E-1,-2.439436913E-1
5.686001841E0,-2.018151283E-1,6.732082367E-2,-2.420124412E-1
5.705893560E0,-3.370206356E-1,1.961336136E-1,-1.992485523E-1
5.725782414E0,-3.148939610E-1,1.200666428E-1,-1.405574083E-1
5.745677570E0,-3.509240150E-1,9.251689911E-2,-8.920460939E-2
5.765537570E0,-3.711109161E-1,8.075141907E-2,-2.652305365E-2
5.785436216E0,-3.335313797E-1,1.099815369E-1,-4.639804363E-2
5.805345643E0,-3.341839314E-1,2.355260849E-1,-9.154784679E-2
5.825218091E0,-3.782889843E-1,3.957986832E-1,-5.527758598E-2
5.845129497E0,-3.366956711E-1,3.621892929E-1,5.887353420E-2
5.865059081E0,-3.795824051E-1,3.221502304E-1,2.304404974E-1
5.884918143E0,-4.131693840E-1,3.625917435E-1,2.722712755E-1
5.904807414E0,-2.854812145E-1,3.761978149E-1,2.401628494E-1
5.924693508E0,-1.623392105E-1,4.599056244E-1,2.406212091E-1
5.944577831E0,-2.188518047E-1,6.157312393E-1,2.425197363E-1
5.964481477E0,-2.386217117E-1,7.056789398E-1,1.922717094E-1
5.984361633E0,-1.666507721E-1,7.155199051E-1,2.091151476E-1
6.004265747E0,-4.291129112E-2,7.384319305E-1,1.273328066E-1
6.024168872E0,-9.826636314E-2,8.317575455E-1,7.452559471E-2
6.044069758E0,-2.463846207E-1,9.379053116E-1,1.386122704E-1
6.063922258E0,-2.834825516E-1,8.950643539E-1,4.659748077E-2
6.083802102E0,-2.664182186E-1,8.949766159E-1,8.419752121E-3
6.103692674E0,-3.824591637E-1,1.035350800E0,6.362438202E-3
6.123588091E0,-5.088183880E-1,1.172594070E0,5.609488487E-2
6.143470799E0,-4.362463951E-1,1.135344505E0,6.412911415E-2
6.163348143E0,-2.804937363E-1,1.020666122E0,-1.378405094E-2
6.183276372E0,-2.602388859E-1,9.911231995E-1,-8.846139908E-2
6.203145539E0,-3.536632061E-1,9.336814880E-1,-4.998171329E-2
6.223053352E0,-5.708379745E-1,6.218051910E-1,2.408421040E-1
6.242935487E0,-6.331546307E-1,2.837123871E-1,4.231013060E-1
6.262812883E0,-4.585409164E-1,3.129768372E-2,1.301561594E-1
6.282712154E0,-2.630891800E-1,-7.832050323E-2,-2.411830425E-2
6.302592102E0,5.072712898E-2,-2.259550095E-1,-1.498109102E-1
6.322485122E0,3.925161362E-1,-4.159421921E-1,-3.333543539E-1
6.342381893E0,3.834671974E-1,-4.439649582E-1,-3.790186644E-1
6.362283560E0,2.078089714E-1,-7.925510406E-2,-4.017964602E-1
6.382213716E0,3.920302391E-1,2.901268005E-2,-5.420433879E-1
6.402102570E0,9.569239616E-1,-3.480911255E-1,-4.342624545E-1
6.421954133E0,1.161629200E0,-5.858163834E-1,-1.871778369E-1
6.441854862E0,1.004765034E0,-8.013620377E-1,-9.810870886E-2
6.461754810E0,6.381912231E-1,-9.019274712E-1,-5.071687698E-2
6.481649497E0,2.888569832E-1,-7.748322487E-1,-1.281476021E-2
6.501508195E0,2.464690208E-1,-9.083871841E-1,4.465103149E-3
6.521401841E0,4.470143318E-1,-1.131954193E0,-1.370882988E-2
6.541323977E0,4.980368614E-1,-1.304190159E0,-2.702552080E-2
6.561180279E0,3.186492920E-1,-1.416061878E0,1.256930828E-2
6.581119237E0,4.242658615E-2,-1.468752861E0,7.885718346E-2
6.600999810E0,-1.689071655E-1,-1.517634869E0,7.417643070E-2
6.620861841E0,-2.663731575E-1,-1.501289368E0,4.619401693E-2
6.640756060E0,-3.135075569E-1,-1.332631588E0,-1.589059830E-3
6.660639602E0,-4.839892387E-1,-1.065489292E0,7.029134035E-2
6.680543716E0,-4.931612015E-1,-9.748363495E-1,1.987543106E-1
6.700426112E0,-5.074319839E-1,-7.843880653E-1,2.043489218E-1
6.720311581E0,-7.291808128E-1,-5.068802834E-1,1.872997284E-1
6.740222622E0,-9.967584610E-1,-2.877917290E-1,3.273399472E-1
6.760116008E0,-9.913558960E-1,-1.211500168E-1,5.315001607E-1
6.780009081E0,-9.643502235E-1,1.076602936E-1,5.766423941E-1
6.799912831E0,-9.539017677E-1,4.619188309E-1,5.256961584E-1
6.819781060E0,-1.126129866E0,9.303064346E-1,8.259099722E-1
6.839674497E0,-1.193182230E0,1.154878616E0,1.057644367E0
6.859576737E0,-9.535093307E-1,1.356278419E0,9.135065079E-1
6.879464289E0,-5.116233826E-1,1.622340202E0,6.070868969E-1
6.899348456E0,4.549264908E-2,1.852420807E0,2.306785583E-1
6.919254497E0,3.944125175E-1,2.016135216E0,-8.791804314E-2
6.939138820E0,5.062518120E-1,2.122752190E0,-3.938608170E-1
6.959030747E0,4.057183266E-1,2.116191864E0,-5.024514198E-1
6.978925435E0,1.960628033E-1,2.087578773E0,-3.426768780E-1
6.998824081E0,4.128623009E-2,2.030725479E0,-2.844727039E-1
7.018700487E0,1.140594482E-2,1.966484070E0,-4.518897533E-1
7.038590070E0,2.887415886E-2,1.858088493E0,-5.361671448E-1
7.058487414E0,-2.456021309E-2,1.614103317E0,-4.209728241E-1
7.078372362E0,-4.090595245E-2,1.273238182E0,-3.895330429E-1
7.098270956E0,4.204678535E-2,9.825115204E-1,-5.717778206E-1
7.118169602E0,2.083084583E-1,7.608718872E-1,-7.272050381E-1
7.138063977E0,4.442765713E-1,4.741344452E-1,-8.762261868E-1
7.157926997E0,7.103788853E-1,2.037496567E-1,-8.430800438E-1
7.177816424E0,6.860537529E-1,7.496261597E-2,-7.777631283E-1
7.197712622E0,5.006618500E-1,1.403083801E-1,-7.630329132E-1
7.217610383E0,2.567327023E-1,7.609272003E-2,-7.887480259E-1
7.237492206E0,2.315411568E-1,-6.235027313E-2,-7.248268127E-1
7.257377831E0,2.449212074E-1,-2.094860077E-1,-6.508892775E-1
7.277290122E0,1.973967552E-1,-4.173250198E-1,-7.125830650E-1
7.297177935E0,1.288132668E-1,-6.027688980E-1,-8.081017733E-1
7.317088924E0,-2.729415894E-3,-6.917972565E-1,-7.445735931E-1
7.336940070E0,-1.097855568E-1,-8.242650032E-1,-7.526295185E-1
7.356856372E0,-3.667879105E-2,-1.052545071E0,-6.625672579E-1
7.376735279E0,1.797695160E-1,-1.327170372E0,-6.082088947E-1
7.396612674E0,3.724341393E-1,-1.483232498E0,-6.645168066E-1
7.416495852E0,4.899501801E-1,-1.608109951E0,-7.544519901E-1
7.436411477E0,7.181115150E-1,-1.628241539E0,-6.444153190E-1
7.456317206E0,9.395265579E-1,-1.589283466E0,-5.743711591E-1
7.476205643E0,1.185691833E0,-1.546370506E0,-5.523728728E-1
7.496139029E0,1.398086071E0,-1.460490704E0,-4.042866230E-1
7.515965799E0,1.438417912E0,-1.317307472E0,-2.033567429E-1
7.535844758E0,1.378668785E0,-1.293196678E0,-3.389573097E-2
7.555788768E0,1.249513149E0,-1.300117493E0,1.974086463E-1
7.575653820E0,1.107061386E0,-1.238533497E0,2.722322941E-1
7.595553404E0,8.563880920E-1,-1.129224777E0,1.428098083E-1
7.615432831E0,4.453320503E-1,-9.493575096E-1,1.423810720E-1
7.635311008E0,1.213603020E-1,-7.158250809E-1,6.139308214E-2
7.655205747E0,-5.737304688E-2,-5.529780388E-1,-1.049990654E-1
7.675146477E0,-3.209152222E-1,-4.507675171E-1,-2.507343292E-1
7.694974081E0,-6.545143127E-1,-4.239478111E-1,-3.339928687E-1
7.714869133E0,-8.813610077E-1,-3.064756393E-1,-2.396543622E-1
7.734785956E0,-9.169020653E-1,-2.376127243E-1,-1.715506017E-1
7.754662622E0,-9.305763245E-1,-2.015171051E-1,-2.458140850E-1
7.774563977E0,-9.227309227E-1,-3.181934357E-2,-2.625061274E-1
7.794440799E0,-8.394174576E-1,2.106199265E-1,-1.479241252E-1
7.814332831E0,-8.688068390E-1,3.689165115E-1,-1.072723269E-1
7.834257310E0,-1.043452024E0,4.291152954E-1,7.125234604E-2
7.854155904E0,-1.108114958E0,4.887952805E-1,2.745537758E-1
7.874037935E0,-9.374327660E-1,5.721015930E-1,2.374690175E-1
7.893890174E0,-8.571321964E-1,8.336782455E-1,2.429988384E-1
7.913814289E0,-9.023482800E-1,1.013612747E0,3.474155664E-1
7.933690747E0,-8.496823311E-1,1.011335373E0,3.503917456E-1
7.953592622E0,-7.177724838E-1,1.111437798E0,4.470947981E-1
7.973449654E0,-6.044781208E-1,1.338587761E0,3.877463937E-1
7.993350174E0,-6.027448177E-1,1.559620857E0,3.332803249E-1
8.013236529E0,-5.196566582E-1,1.588751793E0,3.217084408E-1
8.033125695E0,-3.433537483E-1,1.508239746E0,2.874611616E-1
8.053019393E0,-2.339124680E-1,1.532131195E0,2.163228989E-1
8.072913612E0,-2.166209221E-1,1.497400284E0,1.129715443E-1
8.092815435E0,-2.263169289E-1,1.308082581E0,7.300651073E-2
8.112701581E0,-2.109780312E-1,1.076575279E0,-1.113986969E-2
8.132565539E0,-1.329050064E-1,9.277000427E-1,-1.466553211E-1
8.152456216E0,-3.697443008E-2,8.511915207E-1,-2.556892633E-1
8.172374654E0,-8.822917938E-3,7.156848907E-1,-3.458876610E-1
8.192278872E0,5.650043488E-2,5.655651093E-1,-4.141743183E-1
8.212153977E0,1.887192726E-1,4.353981018E-1,-5.030652285E-1
8.232060904E0,2.647347450E-1,2.673320770E-1,-5.514405370E-1
8.251941477E0,3.362445831E-1,5.496501923E-2,-4.564753771E-1
8.271841737E0,3.472223282E-1,-1.826810837E-1,-2.394210100E-1
8.291720070E0,3.340888023E-1,-3.807182312E-1,-1.208238006E-1
8.311623456E0,3.588728905E-1,-5.432834625E-1,-1.126098633E-2
8.331506737E0,3.530797958E-1,-6.443152428E-1,1.101084054E-1
8.351415643E0,3.441619873E-1,-7.120923996E-1,1.244922429E-1
8.371303456E0,3.591494560E-1,-7.772312164E-1,1.206794381E-2
8.391173195E0,2.978515625E-1,-8.295254707E-1,2.816055715E-2
8.411087831E0,2.676577568E-1,-8.635759354E-1,7.687859237E-2
8.430969914E0,3.157343864E-1,-8.883013725E-1,1.173349284E-2
8.450872622E0,3.962521553E-1,-9.031729698E-1,-3.408830613E-2
8.470750591E0,5.062203407E-1,-9.670739174E-1,-7.257930934E-2
8.490624289E0,6.458754539E-1,-1.025563240E0,-9.108852595E-2
8.510515852E0,7.691407204E-1,-1.032369137E0,-1.782645285E-2
8.530424810E0,7.864069939E-1,-1.014678001E0,-8.088737726E-3
8.550327935E0,6.894755363E-1,-9.502763748E-1,4.598931968E-2
8.570211112E0,6.363887787E-1,-9.333367348E-1,1.436050087E-1
8.590090904E0,6.565408707E-1,-8.776736259E-1,2.421826273E-1
8.609980643E0,6.291594505E-1,-7.658271790E-1,2.540376186E-1
8.629858924E0,4.177212715E-1,-6.322445869E-1,2.685312331E-1
8.649777727E0,2.190890312E-1,-5.725817680E-1,2.978504300E-1
8.669648352E0,2.411880493E-1,-6.162023544E-1,2.480382323E-1
8.689560643E0,2.849698067E-1,-4.986877441E-1,9.570588171E-2
8.709441060E0,1.209158897E-1,-3.800487518E-1,-1.342380345E-1
8.729320122E0,-8.275365829E-2,-3.690614700E-1,-2.409458309E-1
8.749228560E0,-3.980164528E-1,-4.183778763E-1,-2.116685510E-1
8.769100904E0,-7.538900375E-1,-3.875751495E-1,-3.302516788E-2
8.789002310E0,-8.837864399E-1,-2.702226639E-1,-1.064360440E-1
8.808900331E0,-7.622971535E-1,-3.525352478E-2,-2.761744559E-1
8.828802831E0,-5.349090099E-1,3.308944702E-1,-2.958450019E-1
8.848692935E0,-2.395830154E-1,4.458208084E-1,-3.787842691E-1
8.868545799E0,7.041311264E-2,4.487800598E-1,-3.923487663E-1
8.888465799E0,1.210689545E-1,5.660753250E-1,-2.323136330E-1
8.908355487E0,2.455854416E-2,6.541633606E-1,-8.007848263E-2
8.928264081E0,3.815174103E-2,7.157011032E-1,1.468555927E-1
8.948164289E0,1.247763634E-1,7.016506195E-1,3.037196696E-1
8.968039185E0,1.246099472E-1,6.449537277E-1,3.341007531E-1
8.987930227E0,8.285713196E-2,6.734104156E-1,2.697658837E-1
9.007824185E0,-1.896095276E-2,6.686477661E-1,1.310190558E-1
9.027697049E0,-8.584308624E-2,5.815420151E-1,1.203309894E-1
9.047596320E0,-4.033517838E-2,4.301424026E-1,3.854566813E-2
9.067486945E0,3.282499313E-2,3.298625946E-1,-8.989036083E-2
9.087371060E0,1.275124550E-1,2.989406586E-1,-1.719220281E-1
9.107254549E0,1.373414993E-1,3.280181885E-1,-2.216767073E-1
9.127143820E0,-6.776857376E-2,3.545589447E-1,-1.988882422E-1
9.147056685E0,-2.053194046E-1,3.336791992E-1,-2.412556410E-1
9.166942310E0,-2.867560387E-1,2.429704666E-1,-2.498461604E-1
9.186823039E0,-2.426648140E-1,2.599048615E-1,-1.857287288E-1
9.206728456E0,-2.122979164E-1,2.123594284E-1,-2.025453448E-1
9.226608977E0,-2.862966061E-1,6.603145599E-2,-1.994677782E-1
9.246505331E0,-2.368023396E-1,-9.454917908E-2,-1.225908399E-1
9.266368977E0,-2.000517845E-1,-2.640199661E-1,-3.865581751E-2
9.286281997E0,-2.703666687E-1,-3.018016815E-1,1.318049431E-2
9.306203195E0,-3.287925720E-1,-3.008022308E-1,-1.408404112E-2
9.326088560E0,-2.590031624E-1,-3.423967361E-1,4.696905613E-3
9.345966737E0,-1.628699303E-1,-4.079265594E-1,8.767169714E-2
9.365829445E0,2.659320831E-2,-4.962253571E-1,-9.176969528E-3
9.385766008E0,6.486558914E-2,-3.748683929E-1,-3.520375490E-2
9.405634445E0,-1.167078018E-1,-2.698097229E-1,2.727097273E-2
9.425522987E0,-2.650706768E-1,-1.548032761E-1,4.605150223E-2
9.445394289E0,-3.346545696E-1,6.946849823E-2,4.840403795E-2
9.465300174E0,-2.973964214E-1,4.544296265E-1,-5.247312784E-2
9.485172727E0,-9.400033951E-2,8.770465851E-1,-1.259067655E-1
9.505156216E0,4.203271866E-2,1.187640190E0,-7.123190165E-2
9.524976945E0,5.223321915E-2,1.280721664E0,3.596282005E-2
9.544862154E0,9.722518921E-2,1.282296181E0,1.069571376E-1
9.564782518E0,3.618245125E-1,1.282124519E0,5.845111609E-2
9.584656945E0,5.843114853E-1,1.274923325E0,-9.018546343E-2
9.604550695E0,6.837964058E-1,1.146220207E0,-1.382757425E-1
9.624419133E0,7.152447701E-1,1.009089470E0,-1.271803379E-1
9.644347935E0,6.472272873E-1,9.094257355E-1,-1.048534513E-1
9.664238560E0,3.897366524E-1,8.023777008E-1,-4.114621878E-2
9.684150799E0,4.394912720E-2,5.663118362E-1,2.434051037E-2
9.704070331E0,-7.003116608E-2,2.360906601E-1,3.246366978E-2
9.723866320E0,-3.050279617E-2,-1.680850983E-1,2.180311084E-2
9.743785174E0,2.935791016E-2,-6.536555290E-1,-3.433474898E-2
9.763671529E0,-1.059145927E-1,-1.020502567E0,-1.189944223E-1
9.783551945E0,-3.901853561E-1,-1.200979233E0,-9.179512411E-2
9.803457883E0,-6.140351295E-1,-1.165841103E0,-1.880804449E-1
9.823347570E0,-6.559939384E-1,-1.112418652E0,-3.677823544E-1
9.843229654E0,-5.533185005E-1,-1.152291298E0,-4.506558180E-1
9.863129758E0,-3.090867996E-1,-9.937252998E-1,-3.859702349E-1
9.883035331E0,-7.804632187E-2,-6.979026794E-1,-4.512534440E-1
9.902911008E0,1.335620880E-1,-4.235329628E-1,-5.644548535E-1
9.922775279E0,3.345942497E-1,-2.180461884E-1,-5.306647420E-1
9.942701164E0,5.443215370E-1,-2.107896805E-1,-3.960689306E-1
9.962562883E0,7.416229248E-1,-2.782840729E-1,-2.129549384E-1
9.982473456E0,7.213239670E-1,-3.283891678E-1,-1.932495832E-2
1.000236309E1,6.398758888E-1,-3.571615219E-1,1.919596791E-1
1.002226564E1,5.066556931E-1,-4.125456810E-1,4.328147769E-1
1.004215762E1,4.462108612E-1,-5.521917343E-1,5.635158420E-1
1.006205497E1,4.679989815E-1,-6.879363060E-1,6.566405296E-1
1.008191799E1,5.615572929E-1,-7.181701660E-1,5.028917193E-1
1.010182991E1,7.656521797E-1,-7.063927650E-1,3.130639791E-1
1.012171439E1,7.569522858E-1,-7.540898323E-1,1.712583303E-1
1.014160101E1,6.267437935E-1,-8.922405243E-1,6.584638357E-2
1.016147892E1,4.412665367E-1,-1.114121437E0,-8.550047874E-3
1.018136476E1,2.394170761E-1,-1.287783146E0,-1.537549496E-2
1.020125528E1,-9.553337097E-2,-1.339400768E0,-5.141660571E-2
1.022114590E1,-3.534731865E-1,-1.400893211E0,-1.991264224E-1
1.024103544E1,-4.762778282E-1,-1.418116093E0,-2.430972606E-1
1.026095419E1,-5.131015778E-1,-1.348601818E0,-2.991458178E-1
1.028083356E1,-5.969409943E-1,-1.105663300E0,-3.930926621E-1
1.030074491E1,-7.752265930E-1,-5.866165161E-1,-3.975034356E-1
1.032062200E1,-9.387540817E-1,1.139011383E-1,-4.702289701E-1
1.034050012E1,-8.153908253E-1,7.647609711E-1,-4.255600274E-1
1.036040174E1,-2.507669926E-1,1.021025658E0,-3.566471338E-1
1.038030585E1,3.864445686E-1,1.068095207E0,-3.955584764E-1
1.040020304E1,7.058851719E-1,1.229033470E0,-1.669378281E-1
1.042010877E1,7.693929672E-1,1.451832771E0,1.132587790E-1
1.044000554E1,7.013378143E-1,1.541460037E0,2.195655107E-1
1.045987195E1,6.353156567E-1,1.392723083E0,3.170023561E-1
1.047977794E1,6.059291363E-1,1.162920952E0,3.852733970E-1
1.049964413E1,4.961540699E-1,9.547605515E-1,3.691598177E-1
1.051954033E1,2.000381947E-1,7.589883804E-1,3.475214839E-1
1.053944044E1,-1.257424355E-1,6.612215042E-1,3.675816655E-1
1.055930840E1,-3.114223480E-1,4.392538071E-1,2.991495132E-1
1.057921981E1,-3.045394421E-1,2.001113892E-1,2.176128626E-1
1.059909866E1,-2.104840279E-1,7.942295074E-2,1.077308059E-1
1.061898955E1,-2.587766647E-1,-2.969932556E-2,-6.965970993E-2
1.063886429E1,-3.881037235E-1,-1.084251404E-1,-1.596448421E-1
1.065875507E1,-4.409518242E-1,-6.905555725E-2,-1.956851482E-1
1.067864726E1,-3.681025505E-1,-5.090999603E-2,-1.914658546E-1
1.069856585E1,-2.841417789E-1,-1.543817520E-1,-1.606569886E-1
1.071843903E1,-2.434549332E-1,-2.855043411E-1,-2.188625336E-1
1.073833049E1,-2.397258282E-1,-2.401533127E-1,-1.897116899E-1
1.075825497E1,-2.450289726E-1,-2.025480270E-1,-9.671890736E-2
1.077813262E1,-2.230610847E-1,-1.230154037E-1,2.939701080E-3
1.079803169E1,-2.676820755E-1,4.853916168E-2,2.257412672E-2
1.081790049E1,-2.742099762E-1,2.834959030E-1,-1.672756672E-2
1.083778205E1,-1.135301590E-1,4.562025070E-1,2.985620499E-2
1.085768648E1,1.153833866E-1,5.846261978E-1,7.293343544E-2
1.087760309E1,2.793676853E-1,7.064599991E-1,4.672694206E-2
1.089745184E1,3.764073849E-1,8.061647415E-1,5.184572935E-2
1.091736632E1,3.920888901E-1,8.422250748E-1,5.692213774E-2
1.093725898E1,3.873195648E-1,8.407526016E-1,4.679781199E-2
1.095716096E1,4.659161568E-1,7.790117264E-1,-6.670284271E-2
1.097704439E1,5.112347603E-1,7.884359360E-1,-9.094536304E-2
1.099690403E1,4.333558083E-1,7.326135635E-1,-4.443949461E-2
1.101681023E1,2.906484604E-1,6.845235825E-1,-2.461457253E-2
1.103672116E1,2.172703743E-1,5.264158249E-1,-1.639205217E-2
1.105659273E1,1.206603050E-1,3.374862671E-1,5.603504181E-2
1.107649575E1,-5.542421341E-2,8.180427551E-2,8.310112357E-2
1.109638783E1,-2.105593681E-1,-1.874866486E-1,1.694217324E-2
1.111627158E1,-4.353160858E-1,-3.973588943E-1,1.870538294E-2
1.113619283E1,-4.475970268E-1,-5.897951126E-1,-1.544105113E-1
1.115608148E1,-3.466076851E-1,-6.228561401E-1,-2.343682051E-1
1.117595663E1,-1.082339287E-1,-6.899018288E-1,-3.255132437E-1
1.119584366E1,1.090440750E-1,-7.513532639E-1,-4.869896770E-1
1.121575648E1,1.940288544E-1,-7.551431656E-1,-6.114944816E-1
1.123561231E1,2.258973122E-1,-6.966638565E-1,-6.623772383E-1
1.125551611E1,3.903417587E-1,-6.069459915E-1,-5.548434854E-1
1.127541148E1,3.379516602E-1,-4.609355927E-1,-4.785657227E-1
1.129529533E1,1.147189140E-1,-3.010301590E-1,-3.278461993E-1
1.131518366E1,2.184009552E-2,-3.437042236E-1,-2.775824964E-1
1.133512200E1,8.283376694E-2,-3.874053955E-1,-2.971539199E-1
1.135495820E1,7.379961014E-2,-3.971633911E-1,-1.451359391E-1
1.137487273E1,9.011888504E-2,-3.786349297E-1,-4.912966490E-2
1.139473856E1,1.277279854E-1,-3.559060097E-1,-6.538349390E-2
1.141464981E1,7.421875000E-2,-3.643112183E-1,2.181619406E-2
1.143452601E1,1.977682114E-2,-3.412437439E-1,2.131956816E-2
1.145442210E1,1.106023788E-2,-2.627439499E-1,2.530449629E-2
1.147431012E1,-2.198791504E-2,-2.098083496E-1,3.466236591E-2
1.149421981E1,-5.533933640E-2,-2.539019585E-1,4.461765289E-2
1.151414163E1,2.395677567E-2,-4.055004120E-1,4.612982273E-3
1.153396059E1,1.553244591E-1,-4.397082329E-1,-6.411105394E-2
1.155386267E1,2.416167259E-1,-3.481206894E-1,-1.257606149E-1
1.157377981E1,3.070540428E-1,-2.531914711E-1,-1.979705095E-1
1.159365439E1,2.977509499E-1,-2.937431335E-1,-1.233598590E-1
1.161355294E1,3.160409927E-1,-3.375797272E-1,-5.847072601E-2
1.163343872E1,2.797522545E-1,-2.956247330E-1,-4.117602110E-2
1.165334340E1,2.270741463E-1,-2.209415436E-1,-4.378771782E-2
1.167320221E1,2.218532562E-1,-1.808495522E-1,3.833615780E-2
1.169312783E1,2.995162010E-1,-2.365336418E-1,6.655329466E-2
1.171299559E1,2.763595581E-1,-2.052693367E-1,8.421701193E-2
1.173289939E1,1.620478630E-1,-1.607165337E-1,1.046999693E-1
1.175279448E1,1.154317856E-1,-1.003556252E-1,1.207820773E-1
1.177267646E1,1.918897629E-1,-1.288294792E-1,4.997897148E-2
1.179256161E1,1.778230667E-1,-1.835622787E-1,5.258309841E-2
1.181244229E1,1.229004860E-1,-2.221446037E-1,7.152378559E-3
1.183234218E1,1.997637749E-1,-2.429161072E-1,-8.763164282E-2
1.185230614E1,1.480760574E-1,-1.823968887E-1,-5.382889509E-2
1.187213354E1,1.635217667E-2,-1.429858208E-1,-2.101248503E-2
1.189204057E1,-9.663105011E-3,-1.666646004E-1,-8.640825748E-2
1.191191713E1,5.155897141E-2,-1.739096642E-1,-9.187400341E-2
1.193179422E1,1.357078552E-3,-1.795153618E-1,-2.516508102E-2
1.195171484E1,-1.673765182E-1,-1.772375107E-1,2.951413393E-2
1.197159734E1,-3.425431252E-1,-2.160921097E-1,2.956509590E-2
1.199148786E1,-3.948268890E-1,-2.675776482E-1,-1.088362932E-2
1.201138432E1,-4.574680328E-1,-2.046885490E-1,6.690746546E-2
1.203124515E1,-4.052596092E-1,-1.610550880E-1,4.895001650E-3
1.205112453E1,-4.035673141E-1,-1.431088448E-1,5.459129810E-3
1.207101739E1,-3.820695877E-1,-3.177347183E-1,-9.276950359E-2
1.209093849E1,-4.038543701E-1,-4.494414330E-1,-1.898555458E-1
1.211082838E1,-4.822273254E-1,-5.706477165E-1,-3.340080976E-1
1.213069890E1,-3.794651031E-1,-5.970697403E-1,-5.081489682E-1
1.215059698E1,-2.712483406E-1,-3.844113350E-1,-5.798834562E-1
1.217048182E1,-2.478265762E-1,-4.076747894E-1,-6.842449307E-1
1.219037255E1,-3.472499847E-1,-4.297413826E-1,-5.908606052E-1
1.221026901E1,-4.608368874E-1,-2.670383453E-2,-4.622370005E-1
1.223019442E1,-2.775869370E-1,2.356891632E-1,-5.393344164E-1
1.225009192E1,-5.063056946E-3,1.756439209E-1,-4.885679483E-1
1.226994489E1,-2.318811417E-2,2.699317932E-1,-2.120679021E-1
1.228982479E1,-1.019005775E-1,5.241680145E-1,-4.521429539E-3
1.230971062E1,3.804111481E-2,5.628471375E-1,9.813368320E-2
1.232959505E1,2.192664146E-1,5.484704971E-1,3.193423748E-1
1.234951474E1,2.719569206E-1,8.165006638E-1,4.527920485E-1
1.236941448E1,4.311661720E-1,1.012492180E0,1.932747364E-1
1.238929776E1,6.734652519E-1,9.256525040E-1,2.267632484E-1
1.240919682E1,9.017715454E-1,7.365064621E-1,3.855129480E-1
1.242906989E1,8.830032349E-1,7.616357803E-1,2.182744741E-1
1.244898119E1,6.632132530E-1,1.005349636E0,1.211948395E-1
1.246887599E1,5.689673424E-1,1.014273167E0,6.497788429E-2
1.248876437E1,6.429457664E-1,7.483105659E-1,-2.856504917E-2
1.250865338E1,6.955294609E-1,4.601497650E-1,-1.619994640E-2
1.252855630E1,5.252127647E-1,3.833045959E-1,4.367828369E-3
1.254842588E1,1.483669281E-1,4.792771339E-1,4.092097282E-3
1.256832177E1,-1.832628250E-1,5.041103363E-1,-2.331185341E-2
1.258821062E1,-1.305146217E-1,3.565497398E-1,-1.423497200E-1
1.260812489E1,6.100034714E-2,2.519822121E-1,-9.705853462E-2
1.262798218E1,8.352613449E-2,2.423272133E-1,-1.030552387E-1
1.264786609E1,8.174514771E-2,2.798452377E-1,-2.200250626E-1
1.266779619E1,2.196741104E-2,3.265123367E-1,-2.349090576E-1
1.268767953E1,1.645183563E-2,2.751970291E-1,-4.267287254E-2
1.270756317E1,5.558872223E-2,2.382616997E-1,8.626496792E-2
1.272746140E1,1.136436462E-1,2.485327721E-1,6.402790546E-2
1.274735078E1,1.426873207E-1,2.938818932E-1,1.007809639E-1
1.276721885E1,1.322388649E-1,4.104065895E-1,2.526035309E-1
1.278711208E1,1.849722862E-1,4.974851608E-1,2.607443333E-1
1.280703422E1,1.520743370E-1,5.964279175E-1,3.674647808E-1
1.282689104E1,1.434335709E-1,6.666822433E-1,3.976011276E-1
1.284680026E1,3.256320953E-1,7.440032959E-1,2.584521770E-1
1.286670989E1,4.732646942E-1,8.490877151E-1,1.671711206E-1
1.288659099E1,4.682755470E-1,8.958864212E-1,1.447765827E-1
1.290646041E1,4.685096741E-1,8.896484375E-1,1.977003813E-1
1.292635526E1,5.131087303E-1,9.214487076E-1,1.503481865E-1
1.294625520E1,4.988379478E-1,9.921884537E-1,9.397411346E-2
1.296617656E1,5.414371490E-1,9.719581604E-1,1.173919439E-1
1.298607187E1,4.955573082E-1,1.057572365E0,1.176702976E-1
1.300591422E1,3.247432709E-1,1.087944984E0,1.229970455E-1
1.302580646E1,2.300124168E-1,7.914075851E-1,1.761623621E-1
1.304571474E1,1.988763809E-1,5.949544907E-1,1.628386378E-1
1.306561119E1,1.411786079E-1,6.356143951E-1,2.792131901E-2
1.308547968E1,9.912300110E-2,3.853664398E-1,5.194213986E-2
1.310536182E1,-6.764125824E-2,1.116142273E-1,1.520950645E-1
1.312528640E1,-1.721205711E-1,-1.471014023E-1,7.909948379E-2
1.314516307E1,-1.465587616E-1,-4.055538177E-1,-2.472523414E-2
1.316512880E1,-1.263804436E-1,-5.204639435E-1,-1.066867337E-1
1.318494968E1,-6.933641434E-2,-6.750154495E-1,-2.412658930E-1
1.320484422E1,-1.442570686E-1,-9.304008484E-1,-2.723964155E-1
1.322477271E1,-2.358460426E-1,-1.168509007E0,-3.431347609E-1
1.324463750E1,-3.370552063E-1,-1.268126965E0,-3.512603343E-1
1.326449474E1,-4.543409348E-1,-1.333237648E0,-3.999613523E-1
1.328440359E1,-5.752742290E-1,-1.323319912E0,-4.111407995E-1
1.330432000E1,-6.493101120E-1,-1.286553860E0,-4.590145946E-1
1.332421088E1,-6.552848816E-1,-1.059722424E0,-4.920846224E-1
1.334412385E1,-6.072466373E-1,-9.236598015E-1,-5.337461829E-1
1.336396718E1,-5.090420246E-1,-8.288607597E-1,-5.227098465E-1
1.338387661E1,-3.609523773E-1,-6.316394806E-1,-4.861453176E-1
1.340377599E1,-2.530603409E-1,-4.694509506E-1,-3.928959370E-1
1.342363651E1,-1.883430481E-1,-4.468250275E-1,-3.928191662E-1
1.344351708E1,-1.880226135E-1,-3.566627502E-1,-4.224547148E-1
1.346342463E1,-1.970081329E-1,-2.822561264E-1,-4.510668516E-1
1.348331989E1,-2.745823860E-1,-3.612089157E-1,-4.497139454E-1
1.350322224E1,-2.324891090E-1,-4.445648193E-1,-4.200010300E-1
1.352309083E1,-9.498739243E-2,-3.697328568E-1,-4.655293226E-1
1.354297276E1,8.280754089E-3,-2.071981430E-1,-5.644633770E-1
1.356287099E1,9.174346924E-2,-1.650066376E-1,-5.792422295E-1
1.358276979E1,1.245656013E-1,-2.534513474E-1,-4.596807957E-1
1.360265843E1,1.519589424E-1,-2.427043915E-1,-3.600451946E-1
1.362255146E1,1.904788017E-1,-1.151638031E-1,-3.141275644E-1
1.364245494E1,1.783223152E-1,-4.610538483E-2,-2.490806580E-1
1.366235760E1,1.217384338E-1,-3.347873688E-2,-2.222723961E-1
1.368225192E1,6.555938721E-2,3.237819672E-2,-1.633143425E-1
1.370214968E1,1.938056946E-2,4.367733002E-2,-1.615995169E-1
1.372203724E1,9.144306183E-3,5.953311920E-2,-2.071210146E-1
1.374189687E1,-6.540298462E-3,9.820556641E-2,-2.324440479E-1
1.376180536E1,-2.788305283E-2,-1.043701172E-2,-2.165124416E-1
1.378169994E1,-1.975154877E-2,-1.470642090E-1,-2.480148077E-1
1.380157093E1,-2.326679230E-2,-1.785430908E-1,-3.150527477E-1
1.382146239E1,-3.432703018E-2,-2.089834213E-1,-3.983196020E-1
1.384135088E1,-5.692291260E-2,-3.210973740E-1,-4.698827267E-1
1.386126760E1,-4.598903656E-2,-4.463911057E-1,-4.957888722E-1
1.388114562E1,-1.168408394E-1,-4.716653824E-1,-5.774879456E-1
1.390106062E1,-3.231010437E-1,-5.127296448E-1,-4.822621346E-1
1.392092536E1,-4.718134403E-1,-6.627225876E-1,-4.168602228E-1
1.394081682E1,-3.964986801E-1,-6.917572021E-1,-3.747963905E-1
1.396071557E1,-3.281002045E-1,-5.829229355E-1,-3.788374662E-1
1.398061005E1,-4.824292660E-1,-5.138521194E-1,-5.216543674E-1
1.400048291E1,-4.742345810E-1,-5.180025101E-1,-5.846242905E-1
1.402038343E1,-1.254205704E-1,-4.809904099E-1,-4.870387316E-1
1.404026474E1,9.833192825E-2,-2.695169449E-1,-4.027568996E-1
1.406018442E1,1.824278831E-1,1.407938004E-1,-4.844740033E-1
1.408007932E1,2.352862358E-1,4.094467163E-1,-5.878005624E-1
1.409994104E1,2.941050529E-1,3.015575409E-1,-3.830127120E-1
1.411981880E1,2.413163185E-1,2.041845322E-1,-2.556706667E-1
1.413970869E1,2.837309837E-1,2.834615707E-1,-3.530273736E-1
1.415960073E1,5.590462685E-1,4.730358124E-1,-3.148137927E-1
1.417949010E1,6.262083054E-1,5.047512054E-1,-2.371934354E-1
1.419940630E1,4.087862968E-1,3.763837814E-1,-2.866144776E-1
1.421927541E1,9.773302078E-2,2.266254425E-1,-1.644288003E-1
1.423918739E1,1.822571754E-1,1.237983704E-1,1.205203831E-1
1.425905729E1,3.510289192E-1,1.838712692E-1,1.268796325E-1
1.427895135E1,2.739887238E-1,2.583322525E-1,1.628789008E-1
1.429884052E1,-5.661869049E-2,2.170143127E-1,1.873617172E-1
1.431873531E1,-3.375387192E-1,2.198753357E-1,1.489351392E-1
1.433863317E1,-9.322690964E-2,1.816024780E-1,1.843836904E-1
1.435851583E1,1.848387718E-1,1.082124710E-1,1.292017102E-1
1.437841437E1,9.152889252E-2,3.610801697E-1,1.953056455E-1
1.439832557E1,-1.077880859E-1,5.344352722E-1,1.621166468E-1
1.441823000E1,-3.848457336E-2,5.427007675E-1,8.244705200E-2
1.443812698E1,2.311615944E-1,4.998550415E-1,1.445080042E-1
1.445800281E1,4.421195984E-1,4.621877670E-1,2.375257015E-1
1.447785635E1,4.393987656E-1,5.063858032E-1,2.292096615E-1
1.449777020E1,2.846932411E-1,5.833387375E-1,2.427304983E-1
1.451765786E1,1.809000969E-1,6.040163040E-1,3.340917826E-1
1.453755286E1,3.181853294E-1,5.197324753E-1,3.671830297E-1
1.455744911E1,5.536651611E-1,4.968690872E-1,3.337235451E-1
1.457734224E1,5.659456253E-1,5.260219574E-1,3.067799807E-1
1.459723651E1,4.964833260E-1,4.457283020E-1,2.526944876E-1
1.461713401E1,3.713512421E-1,3.826360703E-1,3.199464083E-1
1.463701869E1,2.561516762E-1,2.793912888E-1,3.562652469E-1
1.465691192E1,2.039685249E-1,1.692066193E-1,4.537597299E-1
1.467677604E1,1.338534355E-1,1.629333496E-1,5.089225173E-1
1.469668323E1,1.088533401E-1,1.670551300E-1,4.031329751E-1
1.471656635E1,8.667612076E-2,1.433858871E-1,5.125311017E-1
1.473645156E1,9.660243988E-2,6.083488464E-2,6.538719535E-1
1.475635765E1,-3.431320190E-2,2.150535583E-2,7.264339924E-1
1.477624703E1,-1.257734299E-1,2.335739136E-2,6.668384075E-1
1.479616270E1,7.315635681E-3,1.039123535E-2,6.133850813E-1
1.481603974E1,2.187447548E-1,-4.058265686E-2,5.302879810E-1
1.483592067E1,2.965469360E-1,-2.645778656E-2,4.301591814E-1
1.485579208E1,1.690349579E-1,1.678276062E-2,3.847894371E-1
1.487571739E1,6.219053268E-2,1.048669815E-1,3.203365207E-1
1.489560869E1,6.602096558E-2,2.083759308E-1,2.478907108E-1
1.491546599E1,1.181435585E-1,2.715406418E-1,2.637010217E-1
1.493537437E1,9.812259674E-2,2.217187881E-1,3.067294955E-1
1.495527078E1,3.619575500E-2,1.344423294E-1,2.979316115E-1
1.497515708E1,-9.990549088E-2,1.694068909E-1,2.571960092E-1
1.499509791E1,-2.030472755E-1,1.650218964E-1,1.538905799E-1
1.501492406E1,-2.608661652E-1,1.378479004E-1,1.357309967E-1
1.503482281E1,-4.981296062E-1,1.550559998E-1,1.217403710E-1
1.505473463E1,-8.242578506E-1,2.494764328E-1,4.766370356E-2
1.507461448E1,-1.192118406E0,2.970438004E-1,1.437291205E-1
1.509450942E1,-1.366739988E0,2.609348297E-1,2.588497698E-1
1.511439854E1,-1.244227886E0,1.344585419E-1,9.016263485E-2
1.513430713E1,-1.139191628E0,1.769628525E-1,-7.979220152E-2
1.515420140E1,-1.104144573E0,2.935028076E-1,-2.411232889E-1
1.517409224E1,-1.000951767E0,2.704486847E-1,-4.093109071E-1
1.519395567E1,-9.446589947E-1,1.716337204E-1,-4.383375049E-1
1.521384927E1,-9.500164986E-1,1.121101379E-1,-4.921618402E-1
1.523374172E1,-9.363570213E-1,1.420269012E-1,-6.543661356E-1
1.525362323E1,-8.891034126E-1,1.701726913E-1,-7.945108414E-1
1.527353026E1,-7.652633190E-1,1.320695877E-1,-9.163112044E-1
1.529341739E1,-6.609089375E-1,9.536743164E-4,-9.305563569E-1
1.531331974E1,-6.085076332E-1,-6.699180603E-2,-8.047059178E-1
1.533318666E1,-5.935604572E-1,-1.609039307E-2,-8.327623606E-1
1.535310823E1,-5.793797970E-1,4.307651520E-2,-8.362219930E-1
1.537298057E1,-3.779819012E-1,-9.066486359E-2,-8.687629104E-1
1.539288401E1,-3.372764587E-2,-1.953992844E-1,-8.936856389E-1
1.541277796E1,9.732151031E-2,-1.744165421E-1,-9.239873290E-1
1.543266489E1,1.057672501E-1,-1.409320831E-1,-9.246399999E-1
1.545254422E1,7.586908340E-2,-2.022924423E-1,-8.585684896E-1
1.547243453E1,-5.804824829E-2,-2.894134521E-1,-7.486059666E-1
1.549232958E1,-2.330064774E-2,-3.718385696E-1,-8.136288524E-1
1.551223755E1,1.681880951E-1,-3.980121613E-1,-8.666276336E-1
1.553214666E1,4.790191650E-1,-4.379024506E-1,-8.149623871E-1
1.555203323E1,5.591502190E-1,-4.580965042E-1,-7.259017229E-1
1.557188286E1,4.108958244E-1,-3.674631119E-1,-6.250824928E-1
1.559178187E1,3.714590073E-1,-3.157615662E-1,-6.280152202E-1
1.561167927E1,5.945754051E-1,-3.420124054E-1,-6.074215174E-1
1.563155172E1,8.396158218E-1,-3.558464050E-1,-4.296338558E-1
1.565143474E1,1.010881424E0,-1.033334732E-1,-2.297403365E-1
1.567133052E1,1.059173107E0,2.197647095E-1,-4.138708115E-2
1.569122833E1,1.276307106E0,3.068237305E-1,4.577946663E-2
1.571112156E1,1.476140499E0,3.950490952E-1,-2.406042814E-2
1.573099354E1,1.404917717E0,3.602933884E-1,-2.701925635E-1
1.575091036E1,1.103398323E0,8.931064606E-2,-5.999945402E-1
1.577082156E1,1.020978928E0,-1.337385178E-1,-7.964821458E-1
1.579071140E1,1.108805656E0,-4.079532623E-1,-9.426388741E-1
1.581060099E1,1.079646587E0,-6.200618744E-1,-1.142071247E0
1.583047927E1,8.008689880E-1,-7.333116531E-1,-1.018250227E0
1.585037567E1,4.018549919E-1,-8.615670204E-1,-8.940559030E-1
1.587027588E1,1.086425781E-1,-8.998618126E-1,-9.162720442E-1
1.589016203E1,8.241748810E-2,-1.020182133E0,-9.081587791E-1
1.591006354E1,1.772589684E-1,-1.163920403E0,-8.176712990E-1
1.592995744E1,1.806497574E-1,-1.151578426E0,-8.338500261E-1
1.594982474E1,9.075403214E-2,-1.036603928E0,-7.938812971E-1
1.596971786E1,-4.512071609E-2,-9.414987564E-1,-6.594786644E-1
1.598962296E1,-3.327941895E-2,-9.265260696E-1,-5.033884048E-1
1.600951619E1,1.412887573E-1,-8.699865341E-1,-5.357491374E-1
1.602937468E1,2.393951416E-1,-6.065206528E-1,-5.521220565E-1
1.604927520E1,1.354498863E-1,-3.593616486E-1,-4.958044291E-1
1.606917573E1,1.415891647E-1,-2.757549286E-1,-4.852595925E-1
1.608904531E1,1.522183418E-1,-8.685970306E-2,-4.643170536E-1
1.610896359E1,1.794357300E-1,-8.586883545E-3,-5.298871398E-1
1.612882942E1,2.120180130E-1,2.554893494E-3,-5.360923409E-1
1.614874989E1,2.541646957E-1,6.211948395E-2,-4.955229759E-1
1.616863140E1,2.487854958E-1,1.545438766E-1,-6.012614369E-1
1.618851026E1,1.653137207E-1,2.293853760E-1,-5.275874734E-1
1.620843281E1,7.951450348E-2,1.308345795E-1,-3.664525151E-1
1.622828312E1,7.084345818E-2,-4.323005676E-2,-2.213976681E-1
1.624821328E1,2.359259129E-1,-1.230869293E-1,-1.270582378E-1
1.626810192E1,2.774939537E-1,-1.934061050E-1,-9.281063080E-2
1.628796229E1,8.821654320E-2,-3.052282333E-1,3.700673580E-3
1.630785323E1,-5.253839493E-2,-3.132581711E-1,1.223447621E-1
1.632773531E1,-7.328319550E-2,1.246767044E-1,7.109546661E-2
1.634764734E1,-1.358222961E-1,3.843297958E-1,-5.427496135E-2
1.636755906E1,-2.688927650E-1,4.089927673E-1,4.328817129E-2
1.638744599E1,-3.306193352E-1,3.211526871E-1,-9.396106005E-3
1.640733119E1,-3.737659454E-1,3.264179230E-1,-1.591180265E-1
1.642723640E1,-5.082755089E-1,4.996709824E-1,-2.631286085E-1
1.644711515E1,-6.113004684E-1,6.156024933E-1,-4.529046416E-1
1.646700000E1,-6.324660778E-1,6.813583374E-1,-4.903172851E-1
1.648691531E1,-6.351509094E-1,5.759181976E-1,-3.289744854E-1
1.650679422E1,-7.005455494E-1,4.154443741E-1,-3.078730106E-1
1.652668073E1,-8.118333817E-1,3.481044769E-1,-2.254926115E-1
1.654657349E1,-9.451265335E-1,3.474016190E-1,-8.203482628E-2
1.656645578E1,-8.708927631E-1,2.755346298E-1,5.591984093E-2
1.658633531E1,-7.236251831E-1,2.420511246E-1,2.213400900E-1
1.660623073E1,-7.756350040E-1,2.525329590E-1,3.739783764E-1
1.662615218E1,-8.453178406E-1,2.331476212E-1,4.262043536E-1
1.664603307E1,-7.710480690E-1,2.058610916E-1,5.804402828E-1
1.666589927E1,-5.718538761E-1,2.109193802E-1,5.622437000E-1
1.668581307E1,-5.283007622E-1,3.834438324E-1,5.362156630E-1
1.670569552E1,-7.778713703E-1,4.641504288E-1,5.645398498E-1
1.672558078E1,-1.137087345E0,3.613491058E-1,6.594564319E-1
1.674548724E1,-9.899194241E-1,1.154642105E-1,4.669862390E-1
1.676537390E1,-6.757221222E-1,1.391382217E-1,2.501777411E-1
1.678525208E1,-5.576868057E-1,3.511676788E-1,-9.085321426E-2
1.680516437E1,-4.791908264E-1,4.851522446E-1,-5.186895132E-1
1.682505786E1,-3.333134651E-1,6.682786942E-1,-5.655125380E-1
1.684491849E1,-1.019444466E-1,7.703037262E-1,-4.630875587E-1
1.686483880E1,5.720806122E-2,7.172546387E-1,-4.827467203E-1
1.688471963E1,4.612350464E-2,5.640268326E-1,-3.803557754E-1
1.690466135E1,-1.152973175E-1,4.364280701E-1,-1.425414681E-1
1.692450692E1,-7.310342789E-2,3.497934341E-1,5.100160837E-3
1.694437708E1,5.591392517E-2,2.723226547E-1,9.095805883E-2
1.696427484E1,1.606941223E-3,1.671648026E-1,2.622565031E-1
1.698417802E1,-1.669545174E-1,2.870559692E-3,3.111261129E-1
1.700407005E1,-1.400909424E-1,-1.684532166E-1,2.789924443E-1
1.702393218E1,-7.045269012E-3,-2.214546204E-1,2.342164665E-1
1.704382369E1,9.706830978E-2,-1.870460510E-1,7.484741509E-2
1.706376156E1,9.844875336E-2,-1.716375351E-1,3.932875395E-2
1.708361635E1,1.588468552E-1,-3.166103363E-1,-1.604354382E-2
1.710351130E1,1.130766869E-1,-3.349933624E-1,-8.400046080E-2
1.712340849E1,-2.693176270E-2,-2.628974915E-1,-1.357506514E-1
1.714327635E1,-6.580686569E-2,-2.506656647E-1,-2.257622778E-1
1.716319573E1,5.647373199E-2,-2.699356079E-1,-3.839756250E-1
1.718310281E1,1.781859398E-1,-2.282466888E-1,-5.136846304E-1
1.720296494E1,1.550235748E-1,-1.956224442E-1,-5.717467070E-1
1.722285328E1,7.399463654E-2,-2.068262100E-1,-5.961040854E-1
1.724278161E1,1.077051163E-1,-3.084583282E-1,-6.184352040E-1
1.726265057E1,1.656193733E-1,-3.251619339E-1,-5.469940305E-1
1.728253625E1,2.658319473E-1,-2.629032135E-1,-5.449960828E-1
1.730242286E1,4.065237045E-1,-1.475515366E-1,-5.357597470E-1
1.732232776E1,5.152850151E-1,-1.143207550E-1,-5.523253083E-1
1.734220854E1,6.177911758E-1,-9.245872498E-2,-6.008352637E-1
1.736212500E1,7.008748055E-1,-2.396583557E-2,-5.800262690E-1
1.738200130E1,6.982927322E-1,8.362674713E-2,-5.666373372E-1
1.740186974E1,6.512618065E-1,8.354187012E-3,-5.982236266E-1
1.742176750E1,5.996356010E-1,-1.111812592E-1,-5.559766293E-1
1.744167140E1,4.953713417E-1,-1.450996399E-1,-5.464744568E-1
1.746154234E1,3.343129158E-1,-2.113275528E-1,-5.626711249E-1
1.748142333E1,2.661805153E-1,-3.514003754E-1,-5.794090629E-1
1.750135401E1,2.158050537E-1,-5.198059082E-1,-5.597355366E-1
1.752124734E1,1.574177742E-1,-6.983537674E-1,-6.245569587E-1
1.754112411E1,9.755086899E-2,-7.197518349E-1,-5.430498123E-1
1.756103864E1,3.477668762E-2,-6.430635452E-1,-5.440137386E-1
1.758090885E1,2.721881866E-2,-5.574073792E-1,-6.133217216E-1
1.760079114E1,5.746746063E-2,-5.791807175E-1,-6.038513184E-1
1.762071015E1,5.446958542E-2,-6.177697182E-1,-5.300008059E-1
1.764055708E1,4.699611664E-2,-5.335178375E-1,-4.187195301E-1
1.766044349E1,-2.685976028E-2,-4.488592148E-1,-3.905575275E-1
1.768036630E1,7.671499252E-2,-4.522447586E-1,-4.768084884E-1
1.770025687E1,2.242035866E-1,-3.935737610E-1,-3.636465967E-1
1.772013890E1,2.982368469E-1,-4.033479691E-1,-2.818225324E-1
1.774002932E1,2.476248741E-1,-2.961177826E-1,-2.760691643E-1
1.775993880E1,6.167459488E-2,-1.841239929E-1,-1.581764221E-1
1.777982536E1,4.672145844E-2,-1.732053757E-1,-2.101683989E-2
1.779971073E1,2.366323471E-1,-1.707668304E-1,-3.347739577E-2
1.781961276E1,3.467812538E-1,-1.176919937E-1,-3.915315121E-2
1.783946739E1,2.801532745E-1,-6.096935272E-2,6.287509203E-2
1.785937432E1,1.472787857E-1,-2.178764343E-2,9.472723305E-2
1.787928422E1,1.056017876E-1,3.984546661E-2,1.338375807E-1
1.789915890E1,1.598191261E-1,1.194190979E-1,2.090925872E-1
1.791908791E1,1.419105530E-1,2.372789383E-1,2.147630155E-1
1.793892896E1,5.510902405E-2,2.377767563E-1,2.117497921E-1
1.795882343E1,8.845329285E-3,1.754655838E-1,2.953599989E-1
1.797874484E1,3.628730774E-3,2.273464203E-1,3.452087343E-1
1.799861989E1,-7.255935669E-2,3.174610138E-1,2.983500361E-1
1.801849937E1,-1.718716621E-1,3.245677948E-1,3.146852255E-1
1.803839958E1,-1.863179207E-1,2.939825058E-1,4.164348245E-1
1.805827833E1,-2.678794861E-1,2.783317566E-1,4.416061640E-1
1.807819088E1,-4.438815117E-1,2.584123611E-1,4.907012582E-1
1.809811146E1,-5.823364258E-1,2.791528702E-1,5.137716532E-1
1.811796390E1,-5.780777931E-1,2.883758545E-1,4.781055152E-1
1.813783109E1,-4.649691582E-1,3.217926025E-1,4.268199205E-1
1.815774479E1,-4.809899330E-1,4.573698044E-1,4.281757772E-1
1.817761750E1,-5.899243355E-1,5.494709015E-1,3.863313794E-1
1.819753265E1,-6.169576645E-1,5.485897064E-1,4.243158698E-1
1.821740208E1,-4.916806221E-1,4.963378906E-1,4.445273280E-1
1.823729010E1,-5.035605431E-1,4.749917984E-1,4.731193483E-1
1.825720781E1,-6.302933693E-1,5.383005142E-1,4.706438482E-1
1.827708062E1,-7.011721134E-1,6.164579391E-1,4.351912439E-1
1.829698359E1,-6.533753872E-1,6.443986893E-1,3.820722699E-1
1.831688515E1,-5.560681820E-1,6.053905487E-1,3.537674844E-1
1.833675099E1,-5.011541843E-1,4.944849014E-1,3.149751425E-1
1.835664843E1,-5.494940281E-1,4.887466431E-1,2.995507121E-1
1.837654578E1,-5.889909267E-1,4.934768677E-1,2.524420619E-1
1.839645099E1,-5.674130917E-1,3.952827454E-1,2.227534056E-1
1.841634442E1,-4.041101933E-1,3.043642044E-1,1.188662946E-1
1.843623536E1,-1.683712006E-1,2.988023758E-1,-9.161666036E-2
1.845614932E1,-7.339477539E-2,3.350496292E-1,-1.878338456E-1
1.847607458E1,-2.254619598E-1,2.693405151E-1,-1.590136290E-1
1.849589291E1,-4.077072144E-1,2.096004486E-1,-1.310906112E-1
1.851580890E1,-4.265282154E-1,1.487836838E-1,-1.858923435E-1
1.853565791E1,-3.184473515E-1,9.889984131E-2,-2.846552730E-1
1.855558599E1,-2.627410889E-1,4.837417603E-2,-2.959863245E-1
1.857544890E1,-3.293881416E-1,4.482269287E-4,-3.290114701E-1
1.859536588E1,-4.228293896E-1,-5.123138428E-2,-4.049294889E-1
1.861523015E1,-4.091441631E-1,-2.870559692E-4,-3.904625773E-1
1.863515609E1,-2.418699265E-1,1.027393341E-2,-4.963218868E-1
1.865510411E1,-4.378890991E-2,-6.481552124E-2,-5.937050581E-1
1.867493015E1,4.586553574E-2,-1.397314072E-1,-5.066356063E-1
1.869481458E1,1.042032242E-1,-1.933526993E-1,-5.124640465E-1
1.871469573E1,2.053599358E-1,-2.397632599E-1,-6.213549376E-1
1.873459771E1,3.113598824E-1,-2.238216400E-1,-5.715575218E-1
1.875447552E1,4.244966507E-1,-2.691488266E-1,-6.906558275E-1
1.877435796E1,5.515336990E-1,-2.533445358E-1,-6.971574426E-1
1.879426099E1,6.131434441E-1,-2.826700211E-1,-6.011687517E-1
1.881419531E1,6.588869095E-1,-2.820367813E-1,-4.428994060E-1
1.883408646E1,7.729716301E-1,-2.574033737E-1,-5.808252692E-1
1.885392442E1,9.417171478E-1,-3.138904572E-1,-7.785520554E-1
1.887381312E1,9.364662170E-1,-3.330564499E-1,-6.546736360E-1
1.889373203E1,9.063606262E-1,-4.572305679E-1,-6.195812821E-1
1.891360104E1,9.724516869E-1,-4.962720871E-1,-5.771504045E-1
1.893349302E1,1.009589672E0,-4.959373474E-1,-4.931318164E-1
1.895340776E1,9.206290245E-1,-4.395551682E-1,-5.017384291E-1
1.897330046E1,8.994045258E-1,-4.884338379E-1,-4.755626321E-1
1.899320036E1,8.521943092E-1,-6.132783890E-1,-2.970830202E-1
1.901306869E1,6.691579819E-1,-6.371803284E-1,-1.853656620E-1
1.903294729E1,4.494857788E-1,-4.884462357E-1,-2.880464196E-1
1.905285062E1,3.687028885E-1,-3.129520416E-1,-2.450300604E-1
1.907276823E1,4.216074944E-1,-2.860422134E-1,-1.989384443E-1
1.909263562E1,3.373398781E-1,-2.803716660E-1,-3.115200400E-1
1.911253005E1,6.051206589E-2,-3.184537888E-1,-4.075380862E-1
1.913242338E1,-1.254763603E-1,-4.599361420E-1,-4.306501746E-1
1.915232380E1,-1.963853836E-1,-5.321207047E-1,-4.344139099E-1
1.917221901E1,-2.482655048E-1,-5.629568100E-1,-4.596315622E-1
1.919211260E1,-1.343097687E-1,-5.858402252E-1,-5.399380326E-1
1.921200625E1,-9.004592896E-2,-6.410560608E-1,-5.090627670E-1
1.923186630E1,-2.150478363E-1,-6.961507797E-1,-4.695275128E-1
1.925178177E1,-3.103079796E-1,-6.023540497E-1,-3.628908992E-1
1.927164104E1,-1.903705597E-1,-4.091186523E-1,-3.853552043E-1
1.929154989E1,-8.232498169E-2,-3.014163971E-1,-3.687581420E-1
1.931144078E1,-5.994987488E-2,-2.786226273E-1,-1.966979206E-1
1.933131333E1,-1.486768723E-1,-2.288846970E-1,5.679565668E-2
1.935122182E1,-1.594820023E-1,-1.508951187E-1,2.106680423E-1
1.937113437E1,-1.774520874E-1,2.623558044E-3,2.801242173E-1
1.939102036E1,-1.770529747E-1,8.684349060E-2,3.803559542E-1
1.941087948E1,-1.639571190E-1,8.581638336E-2,3.515290618E-1
1.943080703E1,-1.163649559E-1,1.279487610E-1,3.898725510E-1
1.945069078E1,-1.187424660E-1,1.712007523E-1,4.558316171E-1
1.947055260E1,-2.181859016E-1,2.804422379E-1,5.160406232E-1
1.949047635E1,-2.685651779E-1,4.076938629E-1,5.992848873E-1
1.951035635E1,-2.075915337E-1,5.459079742E-1,5.702192187E-1
1.953023802E1,7.882118225E-3,6.606273651E-1,5.135933161E-1
1.955015031E1,1.388797760E-1,7.372732162E-1,4.491770267E-1
1.957004411E1,3.397846222E-2,8.947248459E-1,5.094258189E-1
1.958991604E1,-1.063008308E-1,1.034149170E0,5.525739193E-1
1.960981526E1,3.737306595E-2,1.064239502E0,6.452627182E-1
1.962968062E1,1.719026566E-1,1.100960732E0,7.773506641E-1
1.964960422E1,1.715140343E-1,1.092412949E0,7.141618133E-1
1.966947802E1,7.707452774E-2,1.046054840E0,6.889654994E-1
1.968935406E1,-2.615308762E-2,1.008086205E0,7.163786292E-1
1.970924828E1,-1.067795753E-1,8.152017593E-1,6.666368246E-1
1.972916286E1,-2.164802551E-1,5.381298065E-1,6.356366873E-1
1.974904547E1,-2.816014290E-1,2.287693024E-1,5.491328239E-1
1.976893229E1,-3.190989494E-1,8.930110931E-2,4.244501293E-1
1.978884474E1,-3.613333702E-1,9.820938110E-3,3.539369404E-1
1.980873442E1,-4.033184052E-1,-1.203422546E-1,3.395507634E-1
1.982862422E1,-3.104472160E-1,-2.615766525E-1,2.552913725E-1
1.984850974E1,-2.726578712E-1,-3.338060379E-1,2.920514643E-1
1.986837948E1,-3.999080658E-1,-4.826917648E-1,3.214080334E-1
1.988829203E1,-4.451837540E-1,-4.405794144E-1,2.576422691E-1
1.990817875E1,-4.632182121E-1,-2.774276733E-1,2.935463488E-1
1.992809640E1,-4.738619328E-1,-2.089452744E-1,2.414549589E-1
1.994796276E1,-4.935257435E-1,-7.029533386E-2,1.885865927E-1
1.996783979E1,-5.537757874E-1,1.693096161E-1,1.509501338E-1
1.998773744E1,-6.954126358E-1,3.831453323E-1,1.257628798E-1
2.000761812E1,-8.114821911E-1,4.382886887E-1,1.086505353E-1
2.002753963E1,-9.739747047E-1,4.884357452E-1,1.588508189E-1
2.004742968E1,-1.164730310E0,7.869720459E-1,6.455942988E-2
2.006732343E1,-1.371614456E0,1.149269104E0,-1.695896983E-1
2.008718156E1,-1.580812693E0,1.188085556E0,-2.199343443E-1
2.010709958E1,-1.698926926E0,1.017070770E0,-1.674783230E-1
2.012696281E1,-1.438839912E0,8.057270050E-1,-4.732985497E-1
2.014684807E1,-9.885518551E-1,1.001025200E0,-7.879685163E-1
2.016674562E1,-3.749699593E-1,1.336576462E0,-1.220191836E0
2.018663010E1,2.731013298E-1,1.450533867E0,-1.676403880E0
2.020652281E1,7.295351028E-1,1.311069489E0,-1.737644434E0
2.022641427E1,8.505778313E-1,1.010288239E0,-1.677087069E0
2.024630375E1,8.506212234E-1,5.577802658E-1,-1.463701248E0
2.026621130E1,8.375468254E-1,7.143497467E-2,-1.179771304E0
2.028612078E1,7.777194977E-1,-3.829803467E-1,-9.233536720E-1
2.030598099E1,6.948566437E-1,-7.971572876E-1,-7.612333298E-1
2.032587953E1,6.439285278E-1,-1.151307106E0,-6.212328672E-1
2.034576729E1,6.727418900E-1,-1.453774929E0,-6.322836876E-1
2.036568708E1,6.932659149E-1,-1.669409275E0,-6.666502953E-1
2.038554458E1,6.291522980E-1,-1.847942829E0,-6.007931828E-1
2.040546526E1,5.991163254E-1,-1.952672958E0,-6.314572096E-1
2.042536015E1,6.107144356E-1,-1.771769524E0,-6.546864510E-1
2.044525140E1,7.378425598E-1,-1.401010036E0,-7.629752159E-1
2.046511989E1,9.946751595E-1,-1.212070465E0,-8.054274321E-1
2.048509062E1,1.294987202E0,-1.083260059E0,-7.783908248E-1
2.050492661E1,1.491868496E0,-8.434023857E-1,-7.907015681E-1
2.052481828E1,1.650572777E0,-5.993666649E-1,-6.142610312E-1
2.054467635E1,1.883317947E0,-3.792796135E-1,-5.094669461E-1
2.056460192E1,1.904331684E0,3.458547592E-2,-5.540626049E-1
2.058447468E1,1.694447994E0,1.982712746E-1,-5.188127756E-1
2.060439442E1,1.270154476E0,-5.276012421E-2,-1.399160624E-1
2.062429646E1,5.306706429E-1,-1.984467506E-1,2.531933784E-1
2.064414448E1,-2.240281105E-1,2.218437195E-2,1.730767190E-1
2.066408067E1,-9.420695305E-1,1.927576065E-1,-1.520388201E-2
2.068394380E1,-1.110855103E0,-6.299304962E-2,1.104687601E-1
2.070385297E1,-9.757730961E-1,-2.625083923E-1,1.681056619E-1
2.072371573E1,-9.071843624E-1,-3.288011551E-1,-1.164230406E-1
2.074361494E1,-9.610633850E-1,-2.811279297E-1,-2.316535115E-1
2.076351036E1,-9.088883400E-1,-1.634817123E-1,-1.863860488E-1
2.078338989E1,-7.293767929E-1,4.022598267E-2,-1.625521779E-1
2.080329151E1,-6.228592396E-1,1.907567978E-1,-1.415320039E-1
2.082317411E1,-6.080749035E-1,4.239025116E-1,-1.807165146E-2
2.084308484E1,-5.008916855E-1,5.569038391E-1,8.317553997E-2
2.086295734E1,-2.597920895E-1,5.980672836E-1,3.528803587E-2
2.088285484E1,3.044342995E-2,6.251049042E-1,4.020750523E-2
2.090273828E1,3.153855801E-1,5.319681168E-1,1.376340389E-1
2.092263989E1,3.998949528E-1,4.882154465E-1,3.121519089E-1
2.094252817E1,3.284516335E-1,4.742021561E-1,3.788030148E-1
2.096240271E1,3.892416954E-1,4.047966003E-1,3.821665049E-1
2.098231922E1,4.859557152E-1,3.571987152E-1,3.724097610E-1
2.100219833E1,3.862688541E-1,3.777875900E-1,3.008428216E-1
2.102212625E1,2.546756268E-1,2.938423157E-1,3.030004501E-1
2.104198646E1,1.990647316E-1,1.990623474E-1,3.194186091E-1
2.106186416E1,1.031293869E-1,1.777267456E-1,2.236797810E-1
2.108177203E1,-4.081726074E-4,7.527256012E-2,1.157645583E-1
2.110162953E1,-4.986286163E-3,4.768753052E-2,1.595565081E-1
2.112154599E1,3.332066536E-2,2.637767792E-2,6.208699942E-2
2.114142198E1,8.642315865E-2,4.683017731E-2,-5.466759205E-2
2.116130114E1,1.141111851E-1,1.324758530E-1,5.781114101E-3
2.118122817E1,1.861977577E-1,7.209205627E-2,9.415924549E-3
2.120111307E1,1.749305725E-1,1.568574905E-1,5.042672157E-3
2.122100942E1,1.121551991E-1,3.007249832E-1,-2.134025097E-3
2.124089994E1,2.264356613E-1,2.791099548E-1,-6.692612171E-2
2.126078026E1,3.751437664E-1,2.742280960E-1,-5.763292313E-3
2.128065406E1,3.503663540E-1,2.891826630E-1,1.227126718E-1
2.130056411E1,2.316327095E-1,3.142404556E-1,6.485342979E-2
2.132046427E1,1.432309151E-1,3.283557892E-1,4.406976700E-2
2.134034781E1,2.081775665E-1,2.642850876E-1,4.105907679E-2
2.136021718E1,3.545093536E-1,1.905889511E-1,9.270066023E-2
2.138014474E1,3.483862877E-1,7.259368896E-2,1.806791425E-1
2.140003953E1,2.551927567E-1,-6.142044067E-2,1.287662983E-1
2.141991755E1,1.310062408E-1,-3.241252899E-2,1.940504313E-1
2.143980682E1,1.781511307E-2,-9.577465057E-2,2.631848156E-1
2.145969281E1,-1.805305481E-3,-2.505722046E-1,2.333942205E-1
2.147956823E1,8.196878433E-2,-3.252124786E-1,1.865979135E-1
2.149947817E1,1.025443077E-1,-2.252864838E-1,1.757400036E-1
2.151934000E1,4.734039307E-2,-1.646156311E-1,4.048136622E-2
2.153926573E1,5.737066269E-2,-1.050119400E-1,-2.800592780E-2
2.155914744E1,7.457304001E-2,-1.822147369E-1,-1.326430142E-1
2.157904182E1,5.742311478E-2,-2.819814682E-1,-2.060838342E-1
2.159893031E1,-4.584884644E-2,-2.734766006E-1,-1.788870394E-1
2.161882000E1,-1.690306664E-1,-2.260169983E-1,-2.469268441E-1
2.163871520E1,-2.186470032E-1,-2.272720337E-1,-3.620554805E-1
2.165861224E1,-3.065414429E-1,-3.013324738E-1,-3.638951182E-1
2.167850703E1,-4.161024094E-1,-3.286066055E-1,-3.727533817E-1
2.169836505E1,-5.453753471E-1,-3.531379700E-1,-3.740889728E-1
2.171827125E1,-6.164927483E-1,-3.887739182E-1,-5.022856593E-1
2.173818099E1,-7.030789852E-1,-3.560209274E-1,-5.166805983E-1
2.175810343E1,-9.632055759E-1,-3.126077652E-1,-4.176192284E-1
2.177796557E1,-1.078597307E0,-1.530876160E-1,-5.390195251E-1
2.179785823E1,-1.011332512E0,5.647182465E-2,-6.260557175E-1
2.181774343E1,-9.916229248E-1,1.049613953E-1,-6.028979421E-1
2.183760474E1,-9.147889614E-1,1.179065704E-1,-6.819561124E-1
2.185749369E1,-8.040971756E-1,2.057704926E-1,-7.923904657E-1
2.187739916E1,-6.860854626E-1,2.896423340E-1,-8.053755760E-1
2.189731172E1,-5.488078594E-1,2.671031952E-1,-7.434871197E-1
2.191719010E1,-5.328547955E-1,2.343387604E-1,-6.764084697E-1
2.193709797E1,-6.833238602E-1,2.989301682E-1,-5.929393768E-1
2.195695463E1,-7.383043766E-1,3.309383392E-1,-5.617336631E-1
2.197687182E1,-6.034872532E-1,3.296356201E-1,-4.974774718E-1
2.199676536E1,-4.158489704E-1,2.859296799E-1,-6.113252044E-1
2.201665922E1,-2.201082706E-1,2.440290451E-1,-7.476911545E-1
2.203651864E1,-1.287555695E-1,2.508783340E-1,-5.932725072E-1
2.205644026E1,-1.320512295E-1,2.144947052E-1,-5.971229672E-1
2.207632906E1,-1.453192234E-1,1.715450287E-1,-6.599059105E-1
2.209622463E1,-6.598782539E-2,2.207612991E-1,-6.868088245E-1
2.211610833E1,9.774208069E-2,2.411794662E-1,-6.912400723E-1
2.213597687E1,2.862699032E-1,1.451950073E-1,-7.293867469E-1
2.215587869E1,4.505896568E-1,-7.997512817E-2,-7.752968669E-1
2.217576672E1,5.250110626E-1,-7.353878021E-2,-6.565511227E-1
2.219566343E1,4.575464725E-1,-5.847454071E-2,-4.669967890E-1
2.221555807E1,4.694068432E-1,-1.290321350E-1,-4.067203999E-1
2.223542396E1,5.974013805E-1,-2.117033005E-1,-3.874478340E-1
2.225532989E1,7.190740108E-1,-1.948957443E-1,-2.773939371E-1
2.227521052E1,7.951478958E-1,-3.213691711E-2,-2.490100861E-1
2.229516448E1,8.727252483E-1,5.470371246E-2,-2.515268326E-1
2.231499536E1,8.476240635E-1,1.149940491E-1,-4.261314869E-3
2.233487828E1,7.852959633E-1,2.844352722E-1,1.874938011E-1
2.235479734E1,7.676923275E-1,5.167961121E-1,2.746823132E-1
2.237471541E1,7.031698227E-1,5.815753937E-1,4.033215046E-1
2.239458422E1,6.878910065E-1,5.676164627E-1,4.321002960E-1
2.241445062E1,7.277972698E-1,5.905933380E-1,4.676795602E-1
2.243434880E1,6.954076290E-1,6.242771149E-1,5.674792528E-1
2.245427833E1,6.758291721E-1,4.649591446E-1,6.625806093E-1
2.247416713E1,5.536885262E-1,2.705974579E-1,6.945791245E-1
2.249408010E1,3.086814880E-1,1.312484741E-1,7.945645452E-1
2.251392302E1,2.016820908E-1,-9.183883667E-4,7.863979340E-1
2.253381770E1,2.127358913E-1,2.924346924E-2,6.797018051E-1
2.255369546E1,2.004246712E-1,7.478809357E-2,6.488615870E-1
2.257358489E1,1.056683064E-1,-6.221199036E-2,6.694025993E-1
2.259348213E1,3.180909157E-2,-2.499818802E-1,6.251771450E-1
2.261338130E1,-8.292579651E-2,-3.718061447E-1,6.554249525E-1
2.263328484E1,-1.792047024E-1,-5.460262299E-1,6.103870273E-1
2.265317317E1,-1.691074371E-1,-6.729507446E-1,5.339794159E-1
2.267305531E1,-1.969385147E-2,-7.963037491E-1,4.969970584E-1
2.269294510E1,1.272916794E-2,-8.964023590E-1,4.653917551E-1
2.271284698E1,7.851266861E-2,-9.541940689E-1,2.181026936E-1
2.273270411E1,1.476569176E-1,-8.980321884E-1,8.528983593E-2
2.275261802E1,2.018704414E-1,-8.214159012E-1,4.559040070E-3
2.277251213E1,2.377381325E-1,-7.500543594E-1,-1.756780148E-1
2.279243005E1,2.360796928E-1,-6.531677246E-1,-2.885128856E-1
2.281229015E1,2.393851280E-1,-5.843791962E-1,-3.173179030E-1
2.283221484E1,3.056955338E-1,-5.797204971E-1,-3.446125388E-1
2.285213656E1,3.750319481E-1,-5.528793335E-1,-3.983407617E-1
2.287194922E1,3.818650246E-1,-3.520650864E-1,-5.053302050E-1
2.289187234E1,2.714948654E-1,-1.723861694E-1,-6.066551805E-1
2.291173854E1,1.227493286E-1,-2.357444763E-1,-5.732373595E-1
2.293165172E1,2.425098419E-2,-2.996015549E-1,-4.789234996E-1
2.295151401E1,-5.826950073E-2,-2.909641266E-1,-4.132405519E-1
2.297141916E1,-8.229255676E-3,-2.244157791E-1,-4.528129697E-1
2.299132505E1,-1.486063004E-2,-1.188707352E-1,-5.109474063E-1
2.301121057E1,-1.661410332E-1,-1.375627518E-1,-5.350111127E-1
2.303110297E1,-3.355298042E-1,-2.228088379E-1,-5.344406962E-1
2.305098083E1,-3.880672455E-1,-2.789382935E-1,-5.418561101E-1
2.307089265E1,-4.005761147E-1,-2.732925415E-1,-5.841496587E-1
2.309076484E1,-3.316102028E-1,-1.336154938E-1,-6.567273736E-1
2.311064359E1,-2.640399933E-1,-9.547233582E-3,-7.642194629E-1
2.313057026E1,-2.409024239E-1,-6.290149689E-2,-7.718622684E-1
2.315044859E1,-2.035441399E-1,-1.676092148E-1,-6.445214748E-1
2.317034672E1,-1.878800392E-1,-2.146854401E-1,-5.785830617E-1
2.319023432E1,-1.913714409E-1,-1.710968018E-1,-6.079729795E-1
2.321014614E1,-2.009649277E-1,-1.386451721E-2,-6.102340221E-1
2.323004192E1,-2.237234116E-1,1.691894531E-1,-6.702209711E-1
2.324990984E1,-1.899275780E-1,1.437177658E-1,-7.478430271E-1
2.326978937E1,-8.470964432E-2,4.531383514E-2,-5.612488985E-1
2.328966593E1,-1.038484573E-1,-1.164436340E-3,-4.635662436E-1
2.330957994E1,-2.638750076E-1,2.531909943E-2,-5.677159429E-1
2.332946000E1,-4.738693237E-1,1.875114441E-2,-6.586554050E-1
2.334935208E1,-6.551134586E-1,9.111404419E-3,-5.359748602E-1
2.336923885E1,-4.365122318E-1,-6.718921661E-2,-3.563829064E-1
2.338913198E1,-2.472083569E-1,-5.457687378E-2,-3.475848138E-1
2.340903828E1,-4.318370819E-1,5.552482605E-2,-4.373465776E-1
2.342891552E1,-7.806820869E-1,1.908569336E-1,-3.203271925E-1
2.344881036E1,-9.070329666E-1,2.111911774E-1,-1.233966351E-1
2.346870838E1,-6.414461136E-1,1.451635361E-1,3.134527802E-2
2.348860942E1,-3.787708282E-1,1.293277740E-1,1.760059595E-2
2.350847406E1,-2.524487972E-1,2.005167007E-1,6.178873777E-2
2.352835776E1,-2.017695904E-1,2.942466736E-1,1.826230288E-1
2.354827453E1,-2.129213810E-1,4.429149628E-1,3.304458857E-1
2.356819906E1,-2.104020119E-1,5.979290009E-1,4.026776552E-1
2.358807916E1,-4.308938980E-2,7.131719589E-1,3.794825673E-1
2.360792739E1,1.388328075E-1,8.641748428E-1,3.987097144E-1
2.362784224E1,2.530045509E-1,9.341087341E-1,4.012869000E-1
2.364771468E1,3.598699570E-1,8.862257004E-1,3.186467290E-1
2.366762557E1,4.573562145E-1,8.655233383E-1,3.347746730E-1
2.368750604E1,4.321422577E-1,8.750829697E-1,3.350254893E-1
2.370739093E1,3.693549633E-1,7.679176331E-1,3.919875622E-1
2.372730281E1,2.526037693E-1,6.328411102E-1,4.604347348E-1
2.374716468E1,1.372761726E-1,5.639982224E-1,5.046898723E-1
2.376708213E1,2.262759209E-2,4.803028107E-1,4.673992395E-1
2.378695260E1,-1.053509712E-1,3.741970062E-1,4.275575876E-1
2.380683916E1,-1.811501980E-1,2.398662567E-1,4.543783665E-1
2.382676078E1,-2.355961800E-1,1.959915161E-1,4.285157323E-1
2.384664963E1,-1.644325256E-1,1.187753677E-1,2.612133622E-1
2.386651823E1,-5.249476433E-2,1.461696625E-2,1.410542130E-1
2.388640479E1,-5.620813370E-2,-9.179973602E-2,1.023381948E-1
2.390630953E1,-1.446602345E-1,-1.319131851E-1,9.872412682E-2
2.392621328E1,-1.643412113E-1,-1.146745682E-1,4.931324720E-2
2.394614776E1,-1.414570808E-1,-6.664562225E-2,1.016148925E-1
2.396596182E1,-1.148047447E-1,-1.425790787E-1,1.823346317E-1
2.398586187E1,-7.932686806E-2,-2.102727890E-1,2.833819389E-1
2.400578119E1,-1.360397339E-1,-1.805562973E-1,3.162567019E-1
2.402566672E1,-1.788156033E-1,-1.557188034E-1,3.887403607E-1
2.404553250E1,-2.542133331E-1,-1.935272217E-1,5.217669010E-1
2.406541718E1,-2.268347740E-1,-2.210588455E-1,6.032758951E-1
2.408530989E1,-1.018371582E-1,-2.204523087E-1,5.500795841E-1
2.410523651E1,-2.209782600E-2,-1.411609650E-1,5.194822550E-1
2.412512515E1,-6.938838959E-2,-2.520656586E-2,5.927556753E-1
2.414499474E1,-4.585075378E-2,-6.874942780E-2,4.784354568E-1
2.416488422E1,-1.895999908E-2,-4.320812225E-2,4.918910861E-1
2.418479713E1,5.274772644E-2,-3.061389923E-2,4.599098265E-1
2.420466380E1,1.511631012E-1,-4.998016357E-2,3.647895455E-1
2.422454802E1,1.450972557E-1,3.787326813E-2,3.573197126E-1
2.424446823E1,1.101021767E-1,1.064367294E-1,3.697793484E-1
2.426433239E1,1.066846848E-1,9.174156189E-2,2.958722413E-1
2.428423177E1,1.225996017E-1,1.410036087E-1,2.721351385E-1
2.430419130E1,6.125068665E-2,1.321382523E-1,3.172262907E-1
2.432399453E1,-3.066873550E-2,7.396793365E-2,3.778766394E-1
2.434390557E1,-3.079891205E-2,1.285839081E-1,3.159666061E-1
2.436381651E1,6.346368790E-2,2.290983200E-1,2.432062179E-1
2.438373906E1,2.282147408E-1,2.303876877E-1,1.313938498E-1
2.440359489E1,3.590884209E-1,1.602277756E-1,9.698408842E-2
2.442347041E1,3.334140778E-1,7.603073120E-2,2.012310177E-1
2.444338369E1,2.681479454E-1,1.053571701E-1,2.346087396E-1
2.446328067E1,1.549401283E-1,2.052192688E-1,2.928858995E-1
2.448315192E1,6.919956207E-2,2.205581665E-1,2.550673485E-1
2.450305104E1,1.088771820E-1,1.522359848E-1,2.806454897E-1
2.452292411E1,1.811876297E-1,7.061481476E-2,3.315365911E-1
2.454284005E1,1.125321388E-1,1.007404327E-1,2.475085855E-1
2.456273369E1,-2.383422852E-2,1.592435837E-1,1.672417819E-1
2.458259781E1,-7.285785675E-2,1.337795258E-1,2.554112077E-1
2.460252687E1,-6.471586227E-2,6.982231140E-2,2.646006346E-1
2.462238208E1,-5.601167679E-2,7.614803314E-2,2.361742556E-1
2.464230609E1,-6.969404221E-2,9.612464905E-2,2.582360506E-1
2.466220088E1,-9.082174301E-2,6.211185455E-2,1.737692356E-1
2.468209140E1,1.186132431E-2,-1.741409302E-3,1.032056808E-1
2.470197922E1,1.283698082E-1,1.317977905E-3,2.925395966E-4
2.472186609E1,1.824340820E-1,2.834129333E-2,-1.910585165E-1
2.474177505E1,1.705794334E-1,9.846878052E-2,-1.809574366E-1
2.476164500E1,7.060623169E-2,2.333164215E-2,-1.728904843E-1
2.478151083E1,-3.098249435E-2,-9.870815277E-2,-1.877269149E-1
2.480139468E1,-1.316289902E-1,-1.262378693E-1,-1.210815907E-1
2.482130119E1,-8.818435669E-2,-1.409864426E-1,-1.375485659E-1
2.484117937E1,-2.195787430E-2,-1.128520966E-1,-1.865026355E-1
2.486112021E1,-8.570003510E-2,-9.899234772E-2,-2.046844959E-1
2.488099182E1,-2.294535637E-1,-8.480930328E-2,-9.701573849E-2
2.490088046E1,-3.033108711E-1,-1.520156860E-1,-2.926111221E-2
2.492078515E1,-2.044930458E-1,-2.369270325E-1,-4.642391205E-2
2.494065703E1,-1.018772125E-1,-1.242389679E-1,-1.155997515E-1
2.496053770E1,-8.095788956E-2,-6.505775452E-2,-2.327172756E-1
2.498042172E1,-2.854299545E-2,-2.848339081E-2,-3.167892098E-1
2.500031057E1,8.193349838E-2,-2.979278564E-2,-4.437499046E-1
2.502021646E1,2.131948471E-1,-1.102390289E-1,-5.179095268E-1
2.504014250E1,2.112298012E-1,-2.244129181E-1,-4.563518167E-1
2.506004046E1,1.128187180E-1,-3.527326584E-1,-4.136501551E-1
2.507989765E1,3.297376633E-2,-4.569187164E-1,-3.652825356E-1
2.509980630E1,-3.704881668E-2,-4.212636948E-1,-3.745654821E-1
2.511968297E1,-5.707168579E-2,-2.824239731E-1,-5.518296957E-1
2.513956698E1,-5.600118637E-2,-1.816482544E-1,-6.205478311E-1
2.515947979E1,1.621961594E-2,-2.268018723E-1,-6.077880859E-1
2.517936005E1,1.665272713E-1,-2.692966461E-1,-6.562537551E-1
2.519923520E1,2.801451683E-1,-2.294321060E-1,-6.457244158E-1
2.521912661E1,2.337498665E-1,-1.178302765E-1,-6.008473635E-1
2.523903640E1,2.068452835E-1,-6.570053101E-2,-6.468705535E-1
2.525890166E1,2.522459030E-1,-7.269382477E-2,-6.548270583E-1
2.527881849E1,2.911500931E-1,-8.581161499E-2,-5.708809495E-1
2.529869046E1,2.732038498E-1,-1.486387253E-1,-5.442251563E-1
2.531860630E1,2.413992882E-1,-1.875495911E-1,-5.904232860E-1
2.533848911E1,1.799678802E-1,-1.216259003E-1,-4.733210802E-1
2.535838224E1,2.249078751E-1,-1.401700974E-1,-4.818599224E-1
2.537826234E1,2.647666931E-1,-1.551427841E-1,-5.353942513E-1
2.539818166E1,1.443638802E-1,-1.047668457E-1,-5.363078117E-1
2.541808448E1,5.016326904E-3,-5.325603485E-2,-5.023415089E-1
2.543794817E1,-2.460479736E-2,-6.221294403E-2,-4.543442726E-1
2.545784104E1,-7.308387756E-2,-9.700012207E-2,-4.839776158E-1
2.547773390E1,-2.336840630E-1,-9.431838989E-4,-4.384731054E-1
2.549760244E1,-3.608140945E-1,8.115673065E-2,-4.396415949E-1
2.551750604E1,-2.969479561E-1,3.013134003E-2,-4.500178993E-1
2.553737073E1,-2.520360947E-1,-3.326320648E-2,-3.906463981E-1
2.555729088E1,-2.794337273E-1,-5.467033386E-2,-3.498443067E-1
2.557716755E1,-3.293056488E-1,9.598445892E-2,-2.966457009E-1
2.559706651E1,-4.317810535E-1,3.645954132E-1,-2.084160447E-1
2.561696338E1,-3.954205513E-1,5.095510483E-1,-2.037835866E-1
2.563683854E1,-2.248730659E-1,4.468631744E-1,-2.360590100E-1
2.565675307E1,-1.059167385E-1,4.289007187E-1,-2.236471474E-1
2.567663776E1,-1.420776844E-1,4.978046417E-1,-2.390860021E-1
2.569653005E1,-3.062369823E-1,5.122461319E-1,-2.255899012E-1
2.571638948E1,-5.018081665E-1,4.611797333E-1,2.148327976E-2
2.573631682E1,-5.247995853E-1,4.011631012E-1,2.077165395E-1
2.575621494E1,-4.979968071E-1,3.952436447E-1,3.119777441E-1
2.577613479E1,-5.242319107E-1,4.562616348E-1,4.620693922E-1
2.579596494E1,-5.992035866E-1,4.495487213E-1,5.624096990E-1
2.581588130E1,-6.167085171E-1,3.368444443E-1,5.489472747E-1
2.583577953E1,-4.935173988E-1,2.450504303E-1,5.130158663E-1
2.585566619E1,-2.526960373E-1,1.458826065E-1,3.742790222E-1
2.587554869E1,-1.036183834E-1,2.057800293E-1,3.263687789E-1
2.589540989E1,-1.449561119E-2,2.735290527E-1,3.441102803E-1
2.591532255E1,-3.029584885E-2,2.989683151E-1,4.454375207E-1
2.593523651E1,-3.532862663E-2,2.858877182E-1,5.856417418E-1
2.595510927E1,-3.305244446E-2,3.097190857E-1,6.735138893E-1
2.597501984E1,-3.861522675E-2,3.927364349E-1,7.771840096E-1
2.599488770E1,2.638459206E-2,4.312791824E-1,8.910363913E-1
2.601478583E1,5.031132698E-2,4.306364059E-1,9.627537727E-1
2.603467718E1,-5.190896988E-2,4.517478943E-1,9.834156036E-1
2.605457286E1,-1.182682514E-1,5.587501526E-1,9.443410635E-1
2.607444364E1,-7.323169708E-2,6.954593658E-1,8.422840834E-1
2.609434765E1,6.119775772E-2,7.346305847E-1,7.495585680E-1
2.611425911E1,1.088910103E-1,7.476501465E-1,7.402667999E-1
2.613414932E1,-4.968833923E-2,7.120828629E-1,7.079221606E-1
2.615405599E1,-2.334685326E-1,6.721343994E-1,6.795501113E-1
2.617390646E1,-3.605825901E-1,6.081876755E-1,7.070645094E-1
2.619379208E1,-2.505078316E-1,5.084037781E-1,6.547964215E-1
2.621366651E1,-1.909463406E-1,4.490032196E-1,6.574127078E-1
2.623357750E1,-2.035281658E-1,3.200750351E-1,6.028635502E-1
2.625348901E1,-2.005460262E-1,1.613721848E-1,5.108231306E-1
2.627335838E1,-2.162392139E-1,6.156635284E-2,5.187703967E-1
2.629324156E1,-1.057505608E-1,-4.407596588E-2,4.226413071E-1
2.631314010E1,-1.939201355E-2,-1.204900742E-1,2.589504421E-1
2.633302119E1,-3.580570221E-2,-2.387990952E-1,1.132652760E-1
2.635295369E1,1.185660362E-1,-3.473577499E-1,9.635841846E-2
2.637281812E1,2.980856895E-1,-5.128059387E-1,6.265163422E-3
2.639271922E1,2.706813812E-1,-5.502557755E-1,-1.705443859E-2
2.641259073E1,5.441856384E-2,-4.850406647E-1,4.512923956E-2
2.643251520E1,-4.651451111E-2,-4.098806381E-1,9.963250160E-2
2.645240734E1,-8.812904358E-3,-2.931022644E-1,7.206839323E-2
2.647227119E1,6.190729141E-2,-2.104139328E-1,8.210521936E-2
2.649217838E1,1.340994835E-1,-1.754503250E-1,5.393463373E-2
2.651211479E1,1.437873840E-1,-1.497297287E-1,2.258187532E-2
2.653196521E1,1.679196358E-1,-1.523361206E-1,-2.967429161E-2
2.655185604E1,1.768798828E-1,-4.783248901E-2,-1.160249114E-1
2.657174468E1,6.171083450E-2,3.536891937E-2,-2.455754876E-1
2.659161109E1,-9.598255157E-2,3.022384644E-2,-2.904798985E-1
2.661150812E1,-1.440677643E-1,-3.297233582E-2,-3.562225103E-1
2.663142901E1,-1.094059944E-1,-8.718585968E-2,-5.190418363E-1
2.665130385E1,-1.329083443E-1,-3.215980530E-2,-5.697954893E-1
2.667120172E1,-2.072887421E-1,-5.197048187E-2,-6.154230833E-1
2.669111109E1,-2.728891373E-1,-8.391284943E-2,-6.126820445E-1
2.671096625E1,-3.147168159E-1,-6.471061707E-2,-6.410506368E-1
2.673088578E1,-3.564949036E-1,-5.558109283E-2,-6.966435909E-1
2.675075765E1,-3.985533714E-1,-1.938915253E-2,-7.245927453E-1
2.677064114E1,-3.660979271E-1,-5.198478699E-3,-8.152645826E-1
2.679054922E1,-2.611951828E-1,-5.869102478E-2,-7.629548311E-1
2.681044224E1,-2.333498001E-1,-1.670532227E-1,-7.004662752E-1
2.683032698E1,-2.631292343E-1,-2.044963837E-1,-7.103967667E-1
2.685023328E1,-2.927532196E-1,-2.383604050E-1,-7.090087533E-1
2.687012031E1,-2.185173035E-1,-3.960590363E-1,-7.913943529E-1
2.689001286E1,-1.867146492E-1,-4.908313751E-1,-8.084008098E-1
2.690989614E1,-2.726550102E-1,-5.360159874E-1,-8.155900240E-1
2.692978083E1,-3.600144386E-1,-4.470663071E-1,-8.587567806E-1
2.694968776E1,-2.304310799E-1,-3.071861267E-1,-8.628469706E-1
2.696957005E1,-3.454351425E-2,-2.033176422E-1,-9.380741715E-1
2.698946224E1,5.096626282E-2,-1.520099640E-1,-9.717199802E-1
2.700934687E1,7.886028290E-2,-7.857799530E-2,-9.403366446E-1
2.702924974E1,1.262736320E-1,1.481742859E-1,-9.445576072E-1
2.704912838E1,2.081708908E-1,2.898626328E-1,-8.886094689E-1
2.706902474E1,3.295607567E-1,3.466634750E-1,-6.840153933E-1
2.708891922E1,3.183989525E-1,3.687839508E-1,-4.749146104E-1
2.710878552E1,2.343153954E-1,3.552293777E-1,-2.632483542E-1
2.712869526E1,2.195458412E-1,3.352708817E-1,-1.283620596E-1
2.714858724E1,2.336144447E-1,3.469486237E-1,-3.965502977E-2
2.716848807E1,2.235031128E-1,3.618078232E-1,1.961743832E-2
2.718835385E1,1.543359756E-1,3.781738281E-1,1.179056168E-1
2.720828713E1,7.977676392E-2,3.607635498E-1,2.148447633E-1
2.722816036E1,-3.233146667E-2,3.087053299E-1,3.711974621E-1
2.724809521E1,-1.298184395E-1,2.950735092E-1,4.090861380E-1
2.726791781E1,-1.156997681E-1,2.826929092E-1,2.882211208E-1
2.728782401E1,2.084398270E-2,2.860870361E-1,2.316055298E-1
2.730773786E1,2.625799179E-1,2.866134644E-1,1.529840827E-1
2.732760500E1,3.392663002E-1,2.969789505E-1,1.461832523E-1
2.734749609E1,2.910561562E-1,3.123846054E-1,2.406097651E-1
2.736738724E1,2.424583435E-1,2.729597092E-1,4.347046614E-1
2.738726854E1,2.461376190E-1,2.640419006E-1,5.089819431E-1
2.740715479E1,2.127795219E-1,3.754816055E-1,5.555398464E-1
2.742707880E1,2.660279274E-1,4.695329666E-1,6.704004407E-1
2.744694489E1,2.505564690E-1,5.113496780E-1,8.272776604E-1
2.746684083E1,1.713714600E-1,4.737491608E-1,9.704307318E-1
2.748674974E1,2.601742744E-1,4.489345551E-1,9.695286155E-1
2.750661385E1,4.998946190E-1,5.049839020E-1,9.324060678E-1
2.752650984E1,6.229052544E-1,5.711402893E-1,8.789573908E-1
2.754641401E1,6.012916565E-1,5.354299545E-1,8.796394467E-1
2.756631619E1,4.084620476E-1,5.074243546E-1,9.563465714E-1
2.758620776E1,2.715110779E-1,4.992780685E-1,8.962714672E-1
2.760615770E1,2.629666328E-1,5.139017105E-1,8.265336752E-1
2.762598515E1,2.304711342E-1,5.270242691E-1,8.287593126E-1
2.764586093E1,1.300826073E-1,4.099845886E-1,7.671793699E-1
2.766574760E1,4.818439484E-3,2.753438950E-1,7.069529295E-1
2.768565510E1,-5.850124359E-2,1.890096664E-1,6.560043693E-1
2.770555088E1,-1.507091522E-2,2.354507446E-1,4.943633080E-1
2.772542323E1,7.932662964E-3,2.152366638E-1,3.647329807E-1
2.774533932E1,-1.220164299E-1,5.019187927E-2,4.156832397E-1
2.776520854E1,-1.450991631E-1,-5.449867249E-2,3.381094038E-1
2.778511510E1,-1.050314903E-1,-1.841354370E-2,1.483364999E-1
2.780501625E1,-1.796708107E-1,5.729198456E-2,1.252394319E-1
2.782491026E1,-1.659922600E-1,5.649757385E-2,6.849124283E-2
2.784478890E1,-8.125686646E-2,-1.467609406E-2,-1.389996707E-2
2.786467468E1,-1.475381851E-1,-5.205154419E-2,-6.531944871E-2
2.788456703E1,-2.582702637E-1,-6.220817566E-2,-7.852516323E-2
2.790444948E1,-3.261127472E-1,-1.119594574E-1,-5.574010313E-2
2.792436187E1,-3.122060299E-1,-1.817731857E-1,-1.789970100E-1
2.794425703E1,-2.487926483E-1,-2.295656204E-1,-3.254221678E-1
2.796414776E1,-2.364032269E-1,-2.587718964E-1,-4.020393789E-1
2.798399927E1,-3.631191254E-1,-2.588071823E-1,-4.691690207E-1
2.800391078E1,-4.949026108E-1,-3.118610382E-1,-5.045391917E-1
2.802381765E1,-5.002079010E-1,-3.536901474E-1,-5.429692268E-1
2.804369172E1,-4.881935120E-1,-3.752031326E-1,-5.984875560E-1
2.806357010E1,-4.449639320E-1,-3.995351791E-1,-6.263870597E-1
2.808346177E1,-3.519022465E-1,-4.514589310E-1,-6.637402177E-1
2.810336713E1,-2.754178047E-1,-4.581432343E-1,-6.178406477E-1
2.812324692E1,-2.994718552E-1,-4.945411682E-1,-5.406346321E-1
2.814315765E1,-1.954879761E-1,-4.803390503E-1,-4.976705909E-1
2.816300791E1,1.467409134E-1,-3.530664444E-1,-6.589840055E-1
2.818292557E1,2.185955048E-1,-2.488775253E-1,-6.645210981E-1
2.820280401E1,1.038460732E-1,-2.182464600E-1,-6.807329655E-1
2.822270442E1,2.801079750E-1,-8.707809448E-2,-1.027776837E0
2.824259442E1,4.729614258E-1,1.847944260E-1,-1.192299724E0
2.826250526E1,4.748482704E-1,2.959585190E-1,-1.198589444E0
2.828239099E1,4.016246796E-1,2.719125748E-1,-1.214611292E0
2.830228755E1,9.629058838E-2,2.523632050E-1,-9.891807437E-1
2.832218390E1,-2.517533302E-1,2.002229691E-1,-7.139939070E-1
2.834206557E1,-2.950396538E-1,1.314229965E-1,-6.870325208E-1
2.836197078E1,-1.740803719E-1,9.167861938E-2,-7.201884985E-1
2.838184708E1,-8.417129517E-2,1.761436462E-3,-6.528310180E-1
2.840175265E1,-2.352285385E-2,-7.082080841E-2,-6.403355002E-1
2.842161739E1,-6.624412537E-2,-1.259593964E-1,-6.083373427E-1
2.844152380E1,-1.901702881E-1,-1.496400833E-1,-4.968823493E-1
2.846140812E1,-2.455110550E-1,-1.668033600E-1,-4.564255774E-1
2.848129484E1,-2.093844414E-1,-1.633529663E-1,-3.959680498E-1
2.850118802E1,-5.834388733E-2,-1.937789917E-1,-4.130608439E-1
2.852108010E1,3.926277161E-3,-1.628122330E-1,-3.500321507E-1
2.854099869E1,-1.413040161E-1,-1.263160706E-1,-2.750744820E-1
2.856086823E1,-2.772474289E-1,-1.000833511E-1,-2.772923708E-1
2.858074375E1,-2.344694138E-1,-1.058330536E-1,-2.558563948E-1
2.860066526E1,-1.011409760E-1,-4.223155975E-2,-2.618408501E-1
2.862055859E1,-1.263952255E-2,-1.825332642E-3,-2.969161272E-1
2.864042375E1,3.013896942E-2,-1.860141754E-2,-2.659578919E-1
2.866030661E1,-9.706020355E-3,-5.630493164E-2,-7.535547018E-2
2.868020401E1,-4.215669632E-2,-8.251476288E-2,1.059550047E-2
2.870010854E1,4.299688339E-2,-8.317470551E-2,1.716172695E-2
2.872000083E1,1.242747307E-1,-2.365970612E-2,1.604921222E-1
2.873988802E1,1.094241142E-1,-4.936218262E-3,2.710017562E-1
2.875980515E1,2.249431610E-2,-4.183769226E-2,3.490490019E-1
2.877967672E1,-3.378915787E-2,-4.215145111E-2,4.355935752E-1
2.879956963E1,3.933382034E-2,-7.972717285E-3,4.117252827E-1
2.881943604E1,2.635955811E-1,-1.721096039E-2,2.910990715E-1
2.883936156E1,4.658451080E-1,8.794307709E-2,2.469054461E-1
2.885922630E1,5.492572784E-1,2.522706985E-1,1.885711551E-1
2.887915208E1,5.008730888E-1,3.630228043E-1,2.908890843E-1
2.889902828E1,3.628621101E-1,4.031982422E-1,4.849752188E-1
2.891891859E1,1.921677589E-1,4.991645813E-1,6.182827950E-1
2.893880552E1,1.168584824E-1,6.691808701E-1,7.290124893E-1
2.895867843E1,1.122169495E-1,8.283834457E-1,7.473928928E-1
2.897858020E1,9.925889969E-2,9.149742126E-1,6.436522007E-1
2.899847135E1,4.346704483E-2,9.400081635E-1,5.875597596E-1
2.901834651E1,-3.160476685E-3,9.110364914E-1,5.610468984E-1
2.903827666E1,-6.312274933E-2,9.503822327E-1,5.787810683E-1
2.905818427E1,-1.356744766E-1,1.021364212E0,5.823658705E-1
2.907806531E1,-2.102048397E-1,1.022269249E0,5.472389460E-1
2.909790880E1,-2.841646671E-1,9.965801239E-1,5.441457033E-1
2.911780385E1,-2.386021614E-1,8.304100037E-1,6.217998266E-1
2.913772609E1,-1.156835556E-1,6.191911697E-1,6.737605333E-1
2.915760828E1,-1.211681366E-1,4.888467789E-1,7.078322172E-1
2.917748062E1,-2.753462791E-1,4.132289886E-1,6.877765656E-1
2.919738838E1,-4.280803204E-1,4.025964737E-1,7.116397619E-1
2.921726640E1,-3.837182522E-1,3.291225433E-1,6.836351752E-1
2.923716552E1,-3.384103775E-1,2.487421036E-1,6.767324209E-1
2.925709177E1,-2.947912216E-1,1.399488449E-1,5.834578276E-1
2.927696880E1,-2.582626343E-1,3.091239929E-2,5.756235123E-1
2.929683156E1,-1.555540562E-1,-5.764293671E-2,5.578328967E-1
2.931673156E1,-1.012849808E-1,-8.306598663E-2,4.063175619E-1
2.933661994E1,-1.080427170E-1,-1.105747223E-1,3.609184623E-1
2.935652255E1,-1.567497253E-1,-1.232681274E-1,3.290649951E-1
2.937641390E1,-9.383058548E-2,-1.516122818E-1,2.049767822E-1
2.939630021E1,6.191062927E-2,-1.748495102E-1,5.068685114E-2
2.941622854E1,1.005544662E-1,-1.777505875E-1,8.872505277E-2
2.943612958E1,-2.658057213E-2,-1.959915161E-1,-7.369816303E-4
2.945596656E1,-1.091308594E-1,-2.054023743E-1,-8.119609952E-2
2.947585031E1,-1.117148399E-1,-1.914033890E-1,-7.719886303E-2
2.949576765E1,-6.286501884E-2,-2.587518692E-1,-1.269958764E-1
2.951566109E1,-1.122720242E-1,-3.190946579E-1,-2.044209987E-1
2.953554755E1,-1.684041023E-1,-3.242397308E-1,-2.575287521E-1
2.955543510E1,-1.562304497E-1,-2.348890305E-1,-3.716005683E-1
2.957533161E1,-1.060504913E-1,-1.711435318E-1,-4.754901528E-1
2.959523682E1,6.383419037E-3,-1.749687195E-1,-5.865249634E-1
2.961511703E1,3.760528564E-2,-2.312059402E-1,-6.365123391E-1
2.963499890E1,-5.497932434E-3,-3.287315369E-1,-6.761342883E-1
2.965490307E1,-8.457088470E-2,-3.710565567E-1,-6.235566139E-1
2.967479765E1,-1.408946514E-1,-3.184795380E-1,-5.972996354E-1
2.969467739E1,-9.500312805E-2,-3.080892563E-1,-7.086672187E-1
2.971457619E1,-1.194093227E-1,-2.225437164E-1,-6.934161186E-1
2.973444198E1,-1.989874840E-1,-1.910352707E-1,-6.435567141E-1
2.975434833E1,-1.646337509E-1,-1.530513763E-1,-6.690853834E-1
2.977425672E1,-1.036343575E-1,-9.027957916E-2,-6.462240219E-1
2.979416151E1,-5.994558334E-2,-4.335117340E-2,-6.362055540E-1
2.981406109E1,-2.438497543E-2,-9.351158142E-2,-5.712760687E-1
2.983389536E1,1.136679649E-1,-1.917638779E-1,-4.870430231E-1
2.985381021E1,1.699848175E-1,-1.450929642E-1,-4.884560108E-1
2.987370515E1,2.738332748E-2,-4.657936096E-2,-5.002194643E-1
2.989358573E1,-8.763217926E-2,-3.604888916E-2,-4.327478707E-1
2.991346166E1,-5.938529968E-2,-5.418586731E-2,-3.900056481E-1
2.993334692E1,-3.679752350E-3,-1.414813995E-1,-4.829282165E-1
2.995325708E1,1.035761833E-1,-2.001962662E-1,-5.994298458E-1
2.997312885E1,1.087827682E-1,-1.458845139E-1,-5.837783813E-1
2.999304562E1,3.083705902E-2,-7.226562500E-2,-5.683302283E-1
3.001290781E1,1.532649994E-2,-6.069946289E-2,-5.399652719E-1
3.003280359E1,-1.395988464E-2,-8.121109009E-2,-3.787007332E-1
3.005271807E1,-8.423972130E-2,-1.257200241E-1,-2.360207886E-1
3.007258218E1,-7.477045059E-2,-8.866786957E-2,-2.237287462E-1
3.009249317E1,-1.066100597E-1,4.244709015E-2,-1.194992959E-1
3.011238224E1,-9.196686745E-2,1.008596420E-1,-5.249086022E-2
3.013228557E1,-1.519823074E-2,8.156204224E-2,-4.456484318E-2
3.015218422E1,1.320409775E-2,1.061620712E-1,4.928439856E-2
3.017207213E1,-5.140638351E-2,1.453056335E-1,1.148748994E-1
3.019194234E1,-9.637069702E-2,2.015943527E-1,1.727593541E-1
3.021181864E1,-4.428195953E-2,3.418760300E-1,2.089117169E-1
3.023174203E1,2.003002167E-2,3.862485886E-1,2.353062630E-1
3.025159646E1,6.238746643E-2,3.848009109E-1,3.255351186E-1
3.027149864E1,1.037201881E-1,3.961124420E-1,3.255755305E-1
3.029139119E1,8.609247208E-2,4.951076508E-1,3.066356182E-1
3.031127760E1,5.272579193E-2,7.311077118E-1,3.503608108E-1
3.033117177E1,9.867668152E-2,8.874130249E-1,3.752543926E-1
3.035106932E1,9.528636932E-2,8.624591827E-1,5.242559314E-1
3.037095791E1,3.576087952E-2,7.381315231E-1,5.745375156E-1
3.039086130E1,2.486133575E-2,5.093002319E-1,5.371314883E-1
3.041075713E1,1.543712616E-2,3.228569031E-1,5.970705152E-1
3.043067000E1,-4.198789597E-2,2.531976700E-1,6.154983044E-1
3.045054296E1,-8.980345726E-2,3.024883270E-1,5.857906938E-1
3.047041656E1,-7.782530785E-2,2.854642868E-1,5.908715725E-1
3.049033500E1,6.822586060E-2,1.891374588E-1,5.480403900E-1
3.051019172E1,2.217082977E-1,5.146026611E-2,4.580764174E-1
3.053009718E1,2.055399418E-1,3.763961792E-2,4.719293714E-1
3.054998791E1,1.640827656E-1,1.807937622E-1,5.294378400E-1
3.056988328E1,1.604607105E-1,3.182077408E-1,5.797080994E-1
3.058979244E1,1.817677021E-1,3.731260300E-1,7.594573498E-1
3.060964791E1,2.462172508E-1,3.972301483E-1,8.032295704E-1
3.062955343E1,2.303421497E-1,4.423952103E-1,7.261177897E-1
3.064945661E1,1.775321960E-1,4.257135391E-1,7.731138468E-1
3.066933937E1,2.374901772E-1,3.098354340E-1,8.446593285E-1
3.068922364E1,3.158485889E-1,2.286195755E-1,8.670512438E-1
3.070912453E1,2.439589500E-1,3.112535477E-1,7.535125613E-1
3.072902984E1,9.569692612E-2,3.761205673E-1,6.989101171E-1
3.074890396E1,1.871621609E-1,2.208919525E-1,5.831656456E-1
3.076881807E1,3.376195431E-1,1.104221344E-1,4.105855525E-1
3.078868000E1,3.563375473E-1,7.508754730E-2,3.147320449E-1
3.080858619E1,2.797551155E-1,-1.485061646E-2,3.196587861E-1
3.082846364E1,1.740400791E-1,-1.497526169E-1,3.287737072E-1
3.084836661E1,4.421281815E-2,-2.488479614E-1,3.106662333E-1
3.086825922E1,-8.633160591E-2,-2.850055695E-1,2.321062833E-1
3.088818755E1,-2.425932884E-1,-3.206415176E-1,1.657684743E-1
3.090808656E1,-2.865989208E-1,-3.806209564E-1,1.380796134E-1
3.092794067E1,-3.402621746E-1,-4.385433197E-1,9.471186996E-2
3.094783005E1,-3.558230400E-1,-5.512752533E-1,-1.557353437E-1
3.096768661E1,-4.188191891E-1,-5.589895248E-1,-2.969680429E-1
3.098761505E1,-4.759428501E-1,-5.305805206E-1,-3.567059636E-1
3.100750213E1,-5.517601967E-1,-4.959259033E-1,-5.104686618E-1
3.102738260E1,-5.537378788E-1,-4.241037369E-1,-6.703819036E-1
3.104727093E1,-5.352282524E-1,-2.380771637E-1,-6.356209517E-1
3.106717057E1,-4.619083405E-1,-1.840419769E-1,-7.095705271E-1
3.108707161E1,-3.498067856E-1,-2.297639847E-1,-8.169764280E-1
3.110693109E1,-2.792966366E-1,-1.897058487E-1,-6.809714437E-1
3.112684557E1,-1.307609081E-1,-2.239036560E-1,-7.626793981E-1
3.114672937E1,5.595541000E-2,-2.635211945E-1,-8.346747160E-1
3.116662573E1,5.743503571E-2,-2.572975159E-1,-7.191615105E-1
3.118651146E1,-4.375219345E-2,-1.639919281E-1,-6.216837168E-1
3.120639198E1,-1.092243195E-1,-1.261520386E-1,-5.333642364E-1
3.122630869E1,-3.715181351E-2,-2.270402908E-1,-4.690400958E-1
3.124622614E1,1.518478394E-1,-2.950830460E-1,-5.227770805E-1
3.126613843E1,1.685543060E-1,-2.925949097E-1,-5.008998513E-1
3.128598510E1,1.548643112E-1,-2.692003250E-1,-5.184366703E-1
3.130584531E1,6.051063538E-2,-2.059946060E-1,-5.033597946E-1
3.132577265E1,-3.595495224E-2,-1.284694672E-1,-4.203692377E-1
3.134565343E1,-5.413055420E-2,-2.504348755E-2,-4.512901306E-1
3.136555203E1,-1.509332657E-2,9.424304962E-2,-5.654890537E-1
3.138541729E1,3.558063507E-2,1.708841324E-1,-6.393574476E-1
3.140532796E1,1.118760109E-1,7.316017151E-2,-6.946619749E-1
3.142520552E1,2.013907433E-1,-6.176853180E-2,-6.494207978E-1
3.144513942E1,2.483282089E-1,-1.180839539E-2,-6.162229180E-1
3.146500859E1,1.910734177E-1,5.271244049E-2,-6.858064532E-1
3.148487218E1,6.134557724E-2,7.940196991E-2,-7.755578756E-1
3.150476182E1,3.177261353E-2,1.361179352E-2,-7.100414038E-1
3.152467567E1,9.507131577E-2,-1.573276520E-1,-6.482270360E-1
3.154457255E1,4.263782501E-2,-2.356042862E-1,-5.804534554E-1
3.156443088E1,-3.606319427E-2,-2.423248291E-1,-5.229751468E-1
3.158434609E1,-8.748531342E-2,-2.165126801E-1,-5.081696510E-1
3.160425260E1,-9.602642059E-2,-1.209831238E-1,-4.912611842E-1
3.162413885E1,-3.828954697E-2,-1.045522690E-1,-4.642738104E-1
3.164403296E1,-4.972076416E-2,-1.465034485E-2,-3.219076395E-1
3.166390849E1,-1.315321922E-1,1.317558289E-1,-2.122217417E-1
3.168381442E1,-1.169080734E-1,2.624797821E-1,-1.498801708E-1
3.170369547E1,-4.029083252E-2,2.813339233E-1,1.606607437E-2
3.172357922E1,3.144407272E-2,3.003520966E-1,1.527265310E-1
3.174346698E1,1.494264603E-2,3.477611542E-1,2.929250598E-1
3.176336880E1,-8.738136292E-2,4.417724609E-1,5.134363174E-1
3.178323328E1,-1.843185425E-1,5.235433578E-1,5.557933450E-1
3.180314724E1,-1.221246719E-1,6.501541138E-1,5.554634333E-1
3.182304724E1,1.394701004E-2,7.295713425E-1,5.352728963E-1
3.184291531E1,1.225109100E-1,7.827110291E-1,5.078347325E-1
3.186281593E1,2.240295410E-1,7.707929611E-1,5.005750060E-1
3.188270770E1,3.807506561E-1,7.477655411E-1,5.138940215E-1
3.190261526E1,5.132164955E-1,7.356414795E-1,5.249640346E-1
3.192250073E1,4.878010750E-1,6.733827591E-1,6.486304998E-1
3.194237646E1,3.025817871E-1,6.185855865E-1,8.244566917E-1
3.196225791E1,1.680412292E-1,5.398540497E-1,8.630751371E-1
3.198220052E1,1.316261292E-1,4.953613281E-1,9.413423538E-1
3.200209427E1,1.387557983E-1,4.159851074E-1,9.822039008E-1
3.202193406E1,1.174826622E-1,3.564128876E-1,9.476263523E-1
3.204185557E1,1.016855240E-2,3.161296844E-1,9.953531623E-1
3.206172093E1,1.372051239E-2,3.008575439E-1,9.372227788E-1
3.208161989E1,1.135025024E-1,2.657699585E-1,7.908919454E-1
3.210150114E1,1.857738495E-1,2.081594467E-1,7.076500654E-1
3.212138619E1,2.298512459E-1,1.281337738E-1,6.212466955E-1
3.214128255E1,1.785306931E-1,1.090497971E-1,5.913399458E-1
3.216116635E1,6.777334213E-2,1.351032257E-1,6.012664437E-1
3.218112302E1,2.296304703E-2,1.458101273E-1,5.076572299E-1
3.220096760E1,4.072999954E-2,6.024837494E-2,4.205030203E-1
3.222085192E1,7.510519028E-2,-7.672214508E-2,3.235380650E-1
3.224073156E1,6.397533417E-2,-1.411180496E-1,2.360237688E-1
3.226065224E1,1.788473129E-2,-2.313938141E-1,1.468977034E-1
3.228051302E1,-5.051612854E-2,-2.482385635E-1,3.251567483E-3
3.230044005E1,-1.806340218E-1,-2.678127289E-1,-2.047363669E-1
3.232032328E1,-2.592797279E-1,-3.028345108E-1,-3.802247941E-1
3.234019854E1,-2.803840637E-1,-3.637676239E-1,-4.793249369E-1
3.236010312E1,-2.653799057E-1,-4.632320404E-1,-6.051532030E-1
3.237999536E1,-3.283872604E-1,-5.517158508E-1,-6.518612504E-1
3.239988396E1,-3.921813965E-1,-5.813570023E-1,-6.736057997E-1
3.241976843E1,-3.569254875E-1,-5.381460190E-1,-7.327597141E-1
3.243964593E1,-2.768344879E-1,-4.870643616E-1,-8.414570689E-1
3.245956974E1,-2.088027000E-1,-4.724979401E-1,-9.381778240E-1
3.247944406E1,-1.149096489E-1,-5.398187637E-1,-1.009038806E0
3.249933067E1,-4.384040833E-3,-5.478124619E-1,-1.039625049E0
3.251923119E1,-5.735206604E-2,-4.897394180E-1,-1.024544477E0
3.253912151E1,-1.367297173E-1,-4.857425690E-1,-1.016170502E0
3.255905239E1,-9.943246841E-2,-5.181093216E-1,-1.012340307E0
3.257889677E1,1.901626587E-3,-5.447974205E-1,-9.503455758E-1
3.259881588E1,-1.211166382E-3,-4.965896606E-1,-8.395577073E-1
3.261868937E1,-2.543687820E-2,-4.366950989E-1,-8.078644276E-1
3.263858135E1,2.909183502E-3,-3.358354568E-1,-7.040411234E-1
3.265846093E1,1.501545906E-1,-2.512531281E-1,-6.769188046E-1
3.267835369E1,3.212704659E-1,-2.051181793E-1,-7.360186577E-1
3.269825692E1,3.360705376E-1,-1.238594055E-1,-7.219891548E-1
3.271816078E1,2.944073677E-1,-1.024408340E-1,-7.638994455E-1
3.273806567E1,3.230195045E-1,-9.578132629E-2,-7.241182923E-1
3.275793823E1,3.879361153E-1,-1.536989212E-1,-6.945991516E-1
3.277780411E1,4.499778748E-1,-1.362361908E-1,-6.842919588E-1
3.279771599E1,3.883323669E-1,-1.610088348E-2,-6.288518310E-1
3.281759739E1,2.062716484E-1,2.892208099E-2,-6.161149740E-1
3.283749588E1,8.560132980E-2,2.906894684E-2,-5.546854138E-1
3.285737177E1,-2.290344238E-2,-6.211280823E-3,-3.887966871E-1
3.287726198E1,-1.037597656E-1,-9.894371033E-3,-2.484161854E-1
3.289717744E1,-2.533702850E-1,6.577968597E-2,-1.548888683E-1
3.291706057E1,-4.251356125E-1,2.078523636E-1,-6.010997295E-2
3.293693291E1,-4.950003624E-1,3.521537781E-1,1.010959148E-1
3.295685672E1,-4.452972412E-1,3.910884857E-1,2.452288866E-1
3.297672927E1,-4.021496773E-1,4.139471054E-1,3.810465336E-1
3.299660531E1,-4.153151512E-1,4.955730438E-1,5.428075790E-1
3.301652942E1,-4.234070778E-1,5.846176147E-1,6.384550929E-1
3.303638692E1,-1.853885651E-1,6.222753525E-1,6.401062012E-1
3.305628458E1,1.814079285E-2,6.896028519E-1,7.439941168E-1
3.307621906E1,2.644157410E-2,7.313337326E-1,8.203216791E-1
3.309612885E1,3.702259064E-2,7.202434540E-1,9.007660151E-1
3.311598739E1,1.159815788E-1,7.318134308E-1,9.834225178E-1
3.313586505E1,2.464132309E-1,7.685155869E-1,9.415705204E-1
3.315577656E1,2.974958420E-1,8.216285706E-1,9.249784350E-1
3.317565479E1,3.144879341E-1,7.662067413E-1,9.225932360E-1
3.319552823E1,3.568730354E-1,6.791009903E-1,8.796843290E-1
3.321543567E1,3.470568657E-1,6.356430054E-1,8.411957622E-1
3.323529437E1,3.049621582E-1,5.719871521E-1,8.548009992E-1
3.325521494E1,2.191371918E-1,5.727863312E-1,8.603828549E-1
3.327508833E1,1.348752975E-1,5.806989670E-1,7.408325672E-1
3.329499786E1,6.680536270E-2,5.181932449E-1,6.528196335E-1
3.331489578E1,-1.884460449E-3,4.134654999E-1,5.572864413E-1
3.333479297E1,-8.364152908E-2,2.878799438E-1,4.283241034E-1
3.335468005E1,-1.044406891E-1,1.911010742E-1,3.868247271E-1
3.337456260E1,-1.653780937E-1,1.846876144E-1,3.059514165E-1
3.339443208E1,-2.784075737E-1,2.081184387E-1,2.336171269E-1
3.341433062E1,-1.988515854E-1,8.745384216E-2,1.606300473E-1
3.343426437E1,-3.995370865E-2,-9.393405914E-2,1.056633592E-1
3.345416406E1,-1.068668365E-1,-1.948766708E-1,1.223481894E-1
3.347404515E1,-4.343271255E-1,-2.104482651E-1,2.222434282E-1
3.349391494E1,-5.502114296E-1,-2.040414810E-1,2.002804875E-1
3.351379218E1,-4.168972969E-1,-2.469778061E-1,6.099134684E-2
3.353367041E1,-9.278774261E-3,-2.968015671E-1,-2.549306750E-1
3.355357630E1,4.080319405E-1,-3.100261688E-1,-5.461106300E-1
3.357347302E1,4.780883789E-1,-2.669553757E-1,-6.721480489E-1
3.359336468E1,2.912096977E-1,-2.346792221E-1,-7.512592673E-1
3.361326817E1,-6.887197495E-2,-2.393541336E-1,-7.285262346E-1
3.363314979E1,-3.823590279E-1,-2.539796829E-1,-5.513508916E-1
3.365306797E1,-3.726062775E-1,-3.658924103E-1,-4.822731018E-1
3.367292489E1,-8.743095398E-2,-4.131555557E-1,-5.845801830E-1
3.369280203E1,1.952695847E-2,-3.059682846E-1,-5.927028656E-1
3.371271984E1,-1.215395927E-1,-3.002338409E-1,-5.751926303E-1
3.373260312E1,-3.008799553E-1,-4.511003494E-1,-6.673916578E-1
3.375250390E1,-2.676415443E-1,-5.095200539E-1,-6.502947807E-1
3.377236875E1,-8.512020111E-2,-5.907187462E-1,-7.219635248E-1
3.379229390E1,1.818861961E-1,-6.874933243E-1,-9.549975395E-1
3.381220573E1,2.305736542E-1,-6.820869446E-1,-1.036720395E0
3.383211125E1,6.481933594E-2,-6.702327728E-1,-1.064798832E0
3.385193156E1,-1.136779785E-2,-6.297907829E-1,-1.118612051E0
3.387185823E1,5.664348602E-3,-5.645642281E-1,-1.158467293E0
3.389174880E1,-1.383113861E-2,-5.346918106E-1,-1.161779404E0
3.391160380E1,1.216030121E-2,-4.946875572E-1,-1.023148656E0
3.393148635E1,6.588792801E-2,-4.726762772E-1,-8.437781334E-1
3.395140192E1,9.109020233E-2,-3.942880630E-1,-7.110180855E-1
3.397127521E1,4.456043243E-2,-2.937822342E-1,-5.639849901E-1
3.399116770E1,-5.782747269E-2,-2.063922882E-1,-3.269040585E-1
3.401110687E1,-1.277942657E-1,-1.167240143E-1,-2.053980827E-1
3.403097984E1,-1.345148087E-1,5.919456482E-3,-8.692765236E-2
3.405084843E1,-1.134347916E-2,6.464958191E-2,9.546101093E-2
3.407073666E1,1.743288040E-1,9.709453583E-2,1.807578802E-1
3.409062682E1,2.252235413E-1,1.349735260E-1,2.008444071E-1
3.411053422E1,1.889362335E-1,2.373046875E-1,2.729381323E-1
3.413041646E1,1.889562607E-1,2.999010086E-1,2.820523977E-1
3.415028734E1,1.639232635E-1,4.027719498E-1,3.022861481E-1
3.417020984E1,5.706071854E-2,5.049295425E-1,3.861856461E-1
3.419008265E1,-5.973672867E-2,5.662412643E-1,5.066200495E-1
3.420997218E1,-1.794309616E-1,6.216869354E-1,6.754124165E-1
3.422985000E1,-2.597684860E-1,6.702651978E-1,8.107302785E-1
3.424976781E1,-3.075218201E-1,6.942863464E-1,9.587019086E-1
3.426964849E1,-3.642339706E-1,7.527732849E-1,1.081604004E0
3.428955119E1,-2.625284195E-1,8.579921722E-1,1.071990728E0
3.430944088E1,-1.248316765E-1,1.009873390E0,1.055287361E0
3.432931265E1,-4.457092285E-2,1.146205902E0,9.693634510E-1
3.434922656E1,-4.878520966E-3,1.224724770E0,8.722212315E-1
3.436912437E1,-8.949708939E-2,1.242789268E0,9.450644255E-1
3.438902984E1,-2.098226547E-1,1.247904778E0,9.971908927E-1
3.440888781E1,-3.119635582E-1,1.301821709E0,1.061268210E0
3.442880359E1,-3.176078796E-1,1.281572342E0,1.075983047E0
3.444867864E1,-2.470760345E-1,1.243629456E0,1.067312241E0
3.446856588E1,-2.605428696E-1,1.215392113E0,9.902037382E-1
3.448847880E1,-3.769011497E-1,1.183352470E0,9.973636866E-1
3.450837015E1,-4.283852577E-1,1.048622131E0,1.020544291E0
3.452825755E1,-3.941421509E-1,8.602457047E-1,9.771125913E-1
3.454816974E1,-3.095612526E-1,6.637392044E-1,8.271238208E-1
3.456812312E1,-3.242220879E-1,5.741634369E-1,7.152065635E-1
3.458792151E1,-3.671183586E-1,5.982637405E-1,6.191481352E-1
3.460783260E1,-3.492202759E-1,5.484533310E-1,3.799471855E-1
3.462771073E1,-2.585635185E-1,4.474849701E-1,2.484819293E-1
3.464759135E1,-6.316137314E-2,3.319568634E-1,1.411595941E-1
3.466750640E1,1.595082283E-1,1.219825745E-1,-1.037125587E-1
3.468738031E1,2.504487038E-1,-6.336879730E-2,-2.587051392E-1
3.470726646E1,1.213235855E-1,-1.333770752E-1,-2.879746556E-1
3.472715218E1,-1.122751236E-1,-1.585426331E-1,-2.685448527E-1
3.474705239E1,-2.999897003E-1,-2.332086563E-1,-2.993853390E-1
3.476695890E1,-2.857146263E-1,-2.966270447E-1,-3.703791797E-1
3.478683151E1,-1.073112488E-1,-3.590641022E-1,-5.716592073E-1
3.480670291E1,6.300640106E-2,-4.078989029E-1,-7.981414795E-1
3.482660218E1,1.568579674E-1,-4.418077469E-1,-1.009513021E0
3.484649333E1,2.247481346E-1,-3.759489059E-1,-1.084999800E0
3.486640265E1,3.183727264E-1,-3.988685608E-1,-1.139552236E0
3.488631885E1,3.041796684E-1,-4.602937698E-1,-1.178168416E0
3.490625083E1,2.360510826E-1,-5.774822235E-1,-1.263909340E0
3.492610557E1,2.860922813E-1,-7.435202599E-1,-1.327013373E0
3.494595640E1,4.852890968E-1,-9.086384773E-1,-1.425125360E0
3.496587099E1,6.536712646E-1,-9.355959892E-1,-1.493582010E0
3.498575161E1,5.439925194E-1,-9.420843124E-1,-1.450546741E0
3.500563911E1,2.473573685E-1,-1.018504620E0,-1.425601840E0
3.502551297E1,8.494853973E-3,-1.165045738E0,-1.288033724E0
3.504542208E1,2.311277390E-1,-1.416354656E0,-1.130784750E0
3.506530177E1,6.931200027E-1,-1.621084690E0,-1.193343401E0
3.508521192E1,6.163496971E-1,-1.429157257E0,-1.081780314E0
3.510516463E1,1.078257561E-1,-1.066503525E0,-9.272481203E-1
3.512500838E1,-1.045322418E-1,-8.242335320E-1,-8.104109764E-1
3.514486708E1,4.405021667E-3,-7.432556152E-1,-5.376617908E-1
3.516475854E1,9.636068344E-2,-5.778517723E-1,-2.846955657E-1
3.518466635E1,6.092548370E-3,-3.374223709E-1,-2.204198688E-1
3.520455963E1,-2.871232033E-1,-1.831417084E-1,-1.597404331E-1
3.522443974E1,-5.634851456E-1,-6.658935547E-2,-9.868398309E-3
3.524433250E1,-6.598658562E-1,-6.632709503E-2,-2.407720685E-2
3.526423713E1,-7.149965763E-1,3.110885620E-3,3.752663732E-2
3.528415500E1,-7.842347622E-1,2.778024673E-1,3.216710687E-2
3.530403672E1,-8.031249046E-1,5.498142242E-1,-6.035804749E-3
3.532393151E1,-5.717935562E-1,6.206588745E-1,9.760135412E-2
3.534378411E1,-2.732920647E-1,5.759840012E-1,3.187683821E-1
3.536368296E1,-1.182184219E-1,6.907548904E-1,5.499248505E-1
3.538358307E1,-3.011322021E-2,8.975076675E-1,8.539687991E-1
3.540347036E1,1.216359138E-1,1.110565186E0,9.414621592E-1
3.542333802E1,3.613080978E-1,1.370777130E0,1.017983198E0
3.544323442E1,5.619916916E-1,1.496984482E0,1.239986539E0
3.546315692E1,7.499628067E-1,1.446084023E0,1.228622317E0
3.548306057E1,8.171229362E-1,1.385475159E0,1.245264053E0
3.550291260E1,6.261258125E-1,1.327509880E0,1.479912639E0
3.552279937E1,2.616152763E-1,1.291697502E0,1.607459188E0
3.554271974E1,9.016561508E-2,1.147138596E0,1.604945421E0
3.556260948E1,-1.904964447E-2,1.001312256E0,1.650623322E0
3.558247229E1,-1.887440681E-1,8.259878159E-1,1.605869532E0
3.560236989E1,-3.851547241E-1,7.290754318E-1,1.454907894E0
3.562227349E1,-4.915094376E-1,6.681728363E-1,1.287629008E0
3.564219416E1,-4.799623489E-1,5.935382843E-1,1.128288388E0
3.566208422E1,-3.161492348E-1,4.769325256E-1,8.915573359E-1
3.568193494E1,-2.296442986E-1,3.635454178E-1,6.876501441E-1
3.570181734E1,-3.107004166E-1,2.164497375E-1,6.305923462E-1
3.572174244E1,-4.025583267E-1,1.359100342E-1,5.281889439E-1
3.574163364E1,-3.982477188E-1,1.554765701E-1,3.801145256E-1
3.576151994E1,-3.206639290E-1,1.224546432E-1,2.262822986E-1
3.578139073E1,-2.926554680E-1,4.689311981E-2,1.240833178E-1
3.580130734E1,-3.646998405E-1,-9.454441071E-2,3.428883851E-2
3.582121182E1,-4.655480385E-1,-1.580276489E-1,-1.432327330E-1
3.584109505E1,-4.316511154E-1,-1.266860962E-1,-3.966348767E-1
3.586095656E1,-2.806854248E-1,-1.201810837E-1,-5.603757501E-1
3.588085953E1,-2.909135818E-2,-1.294784546E-1,-7.519373894E-1
3.590074692E1,1.224846840E-1,-1.689081192E-1,-8.548451662E-1
3.592064864E1,8.564853668E-2,-2.225027084E-1,-7.990030050E-1
3.594054672E1,-2.566337585E-2,-2.918510437E-1,-7.667020559E-1
3.596042208E1,-2.618932724E-2,-3.836288452E-1,-8.244898915E-1
3.598031375E1,1.175661087E-1,-4.874391556E-1,-9.154715538E-1
3.600021942E1,2.368278503E-1,-5.465793610E-1,-9.604631662E-1
3.602012489E1,2.258143425E-1,-5.452461243E-1,-9.596170187E-1
3.604002041E1,2.744922638E-1,-4.759235382E-1,-1.017152786E0
3.605988942E1,3.790760040E-1,-3.742179871E-1,-1.081086159E0
3.607975531E1,4.969534874E-1,-2.952194214E-1,-1.018558025E0
3.609966224E1,5.258226395E-1,-3.303079605E-1,-9.475064278E-1
3.611955869E1,4.714207649E-1,-3.855724335E-1,-9.083799720E-1
3.613944661E1,3.233923912E-1,-4.191293716E-1,-8.008022904E-1
3.615930843E1,1.884784698E-1,-4.511756897E-1,-7.297059298E-1
3.617920823E1,1.563410759E-1,-4.898853302E-1,-7.168802023E-1
3.619912130E1,1.604561806E-1,-5.151557922E-1,-5.502821207E-1
3.621901786E1,1.608247757E-1,-5.381259918E-1,-4.657968283E-1
3.623890234E1,1.143207550E-1,-5.800695419E-1,-3.861254454E-1
3.625876771E1,6.767129898E-2,-5.933718681E-1,-4.008522332E-1
3.627866010E1,5.999660492E-2,-5.242204666E-1,-4.080651999E-1
3.629856349E1,3.045368195E-2,-4.947156906E-1,-3.431189954E-1
3.631846588E1,-3.776931763E-2,-4.830913544E-1,-2.892747819E-1
3.633834427E1,-3.739404678E-2,-4.293451309E-1,-2.318652570E-1
3.635825255E1,5.419874191E-2,-2.800025940E-1,-1.952060014E-1
3.637816593E1,1.798810959E-1,-1.140069962E-1,-1.521759629E-1
3.639806520E1,2.006964684E-1,-5.318641663E-3,-3.858253360E-2
3.641792588E1,9.172868729E-2,5.047512054E-2,1.710372865E-1
3.643783453E1,-8.524656296E-2,1.155624390E-1,3.989669681E-1
3.645772578E1,-1.566863060E-1,2.615957260E-1,6.016895771E-1
3.647760343E1,-8.688116074E-2,4.697141647E-1,7.492595911E-1
3.649748161E1,1.113896370E-1,6.199893951E-1,7.339912057E-1
3.651737427E1,2.749538422E-1,7.619829178E-1,7.754922509E-1
3.653725458E1,3.120608330E-1,8.319377899E-1,8.531344533E-1
3.655715750E1,2.889075279E-1,8.058271408E-1,8.733621836E-1
3.657705651E1,2.789039612E-1,8.410720825E-1,9.222326875E-1
3.659693312E1,2.678885460E-1,8.940429688E-1,1.031839728E0
3.661682802E1,1.394152641E-1,9.522123337E-1,1.166449547E0
3.663674791E1,-3.816366196E-2,9.350557327E-1,1.193743706E0
3.665659937E1,-1.108293533E-1,8.842306137E-1,1.154210091E0
3.667652349E1,-1.927814484E-1,8.424768448E-1,1.185177088E0
3.669641880E1,-2.623462677E-1,7.619085312E-1,1.061537027E0
3.671631286E1,-3.787326813E-1,6.638755798E-1,9.977889657E-1
3.673617458E1,-4.967675209E-1,5.521669388E-1,1.015598297E0
3.675612906E1,-5.419254303E-1,4.758462906E-1,8.693289161E-1
3.677597213E1,-5.464735031E-1,4.689645767E-1,7.250712514E-1
3.679584021E1,-5.355162621E-1,4.179649353E-1,6.388171315E-1
3.681576380E1,-5.976166725E-1,3.475189209E-1,5.911265612E-1
3.683565005E1,-6.208562851E-1,2.188692093E-1,5.163432956E-1
3.685552849E1,-5.241365433E-1,4.492473602E-2,5.075406432E-1
3.687543651E1,-3.283758163E-1,-1.127815247E-1,4.438738227E-1
3.689533130E1,-2.063975334E-1,-9.872722626E-2,3.746177554E-1
3.691519515E1,-2.826833725E-1,-8.434867859E-2,2.565581799E-1
3.693514843E1,-3.827486038E-1,-9.882068634E-2,1.974968761E-1
3.695497234E1,-4.455142021E-1,-9.476184845E-2,2.634029686E-1
3.697488823E1,-3.477377892E-1,-1.188688278E-1,1.086569428E-1
3.699476312E1,-2.652335167E-1,-9.311771393E-2,-5.954384804E-3
3.701467234E1,-2.814002037E-1,-6.991481781E-2,-4.567074776E-2
3.703456588E1,-2.503719330E-1,-3.240299225E-2,-1.777510047E-1
3.705445698E1,-2.227401733E-1,5.867385864E-2,-2.314513326E-1
3.707434135E1,-1.293716431E-1,1.995553970E-1,-3.310094774E-1
3.709423672E1,7.354259491E-3,2.862577438E-1,-5.261499882E-1
3.711416708E1,1.171774864E-1,3.247089386E-1,-5.627321005E-1
3.713402635E1,9.425783157E-2,3.220758438E-1,-5.139888525E-1
3.715389562E1,3.421115875E-2,2.864484787E-1,-5.789960027E-1
3.717380338E1,-1.142630577E-1,3.284349442E-1,-6.180319786E-1
3.719367463E1,-2.378077507E-1,3.985919952E-1,-6.051501632E-1
3.721357369E1,-1.691937447E-1,3.119726181E-1,-7.098295689E-1
3.723347390E1,5.067873001E-2,1.820039749E-1,-8.124939203E-1
3.725336125E1,1.647739410E-1,5.034446716E-2,-7.894328237E-1
3.727322270E1,1.527948380E-1,-4.534626007E-2,-8.143798113E-1
3.729313093E1,5.357074738E-2,-6.299400330E-2,-8.030614257E-1
3.731304234E1,7.331180573E-2,-1.124105453E-1,-8.330131769E-1
3.733290864E1,1.709814072E-1,-1.219453812E-1,-8.058381677E-1
3.735281130E1,2.969474792E-1,-1.472034454E-1,-7.332744598E-1
3.737271307E1,4.044532776E-1,-2.348785400E-1,-7.686916590E-1
3.739260474E1,4.618926048E-1,-2.675790787E-1,-7.145207524E-1
3.741247359E1,4.457235336E-1,-2.318639755E-1,-6.098725200E-1
3.743238651E1,4.314074516E-1,-2.508468628E-1,-5.786693096E-1
3.745230343E1,4.423742294E-1,-2.962350845E-1,-5.675721169E-1
3.747218187E1,3.840470314E-1,-2.244596481E-1,-4.580269456E-1
3.749210229E1,1.896157265E-1,-1.660194397E-1,-3.919197917E-1
3.751194343E1,4.770421982E-2,-2.017650604E-1,-4.151327014E-1
3.753184323E1,1.106309891E-2,-2.673692703E-1,-4.692918062E-1
3.755172833E1,3.784608841E-2,-2.569093704E-1,-4.363994598E-1
3.757163338E1,2.478599548E-2,-1.630353928E-1,-3.122848868E-1
3.759148791E1,-1.355504990E-1,-1.255407333E-1,-1.528744102E-1
3.761140807E1,-2.882432938E-1,-8.089447021E-2,2.225714922E-2
3.763131854E1,-3.654165268E-1,1.455783844E-2,6.041544676E-2
3.765118359E1,-2.801227570E-1,9.134101868E-2,1.166284680E-1
3.767109463E1,-8.038473129E-2,1.491079330E-1,2.020220757E-1
3.769098130E1,8.075094223E-2,8.297443390E-2,2.496424913E-1
3.771083979E1,6.684637070E-2,5.353260040E-2,3.092125654E-1
3.773076724E1,1.931142807E-2,1.320323944E-1,4.391832948E-1
3.775062208E1,-2.144765854E-2,2.098646164E-1,3.950269818E-1
3.777052927E1,-1.461458206E-2,3.060112000E-1,3.960572481E-1
3.779043161E1,-1.081218719E-1,3.666696548E-1,5.084114075E-1
3.781031541E1,-1.936182976E-1,3.986225128E-1,4.559120834E-1
3.783018729E1,-2.217712402E-1,4.317903519E-1,4.974377155E-1
3.785013000E1,-1.702508926E-1,4.142656326E-1,6.158394814E-1
3.787002791E1,-1.376733780E-1,3.697710037E-1,5.903124213E-1
3.788991453E1,-1.752099991E-1,3.631467819E-1,7.288379669E-1
3.790978526E1,-1.799058914E-1,3.637609482E-1,7.896805406E-1
3.792966937E1,-1.296739578E-1,4.192428589E-1,7.793469429E-1
3.794955546E1,-7.917690277E-2,4.479179382E-1,8.396267891E-1
3.796944073E1,-2.324867249E-2,4.157104492E-1,8.737247586E-1
3.798931859E1,1.695275307E-1,3.676261902E-1,8.672247529E-1
3.800921135E1,3.667058945E-1,3.354148865E-1,7.945146561E-1
3.802910291E1,4.954543114E-1,3.104677200E-1,7.636767626E-1
3.804898020E1,4.761562347E-1,2.395648956E-1,7.265999317E-1
3.806887968E1,2.503752708E-1,1.778860092E-1,6.605230570E-1
3.808876953E1,-4.227924347E-2,1.248435974E-1,6.949220896E-1
3.810867661E1,-2.426447868E-1,1.303567886E-1,7.491908073E-1
3.812856036E1,-3.205399513E-1,1.530199051E-1,5.664144754E-1
3.814846682E1,-2.861924171E-1,1.441373825E-1,3.246207535E-1
3.816833968E1,-3.350658417E-1,-3.136634827E-3,1.805871427E-1
3.818823458E1,-4.555978775E-1,-2.226171494E-1,3.231483698E-2
3.820812932E1,-6.779623032E-1,-1.652469635E-1,-4.745036364E-2
3.822802948E1,-8.152217865E-1,-5.422592163E-3,-2.409886718E-1
3.824792484E1,-8.695282936E-1,-1.178855896E-1,-4.563764930E-1
3.826779698E1,-8.396329880E-1,-3.640489578E-1,-4.649904370E-1
3.828770833E1,-5.453052521E-1,-5.245780945E-1,-6.562281847E-1
3.830758604E1,-1.446084976E-1,-4.207649231E-1,-8.838151693E-1
3.832746864E1,-1.356601715E-2,-2.780737877E-1,-8.704794049E-1
3.834734994E1,3.083229065E-2,-4.856252670E-2,-7.438173890E-1
3.836725901E1,1.612968445E-1,2.150735855E-1,-7.247433066E-1
3.838717198E1,5.333170891E-1,2.470092773E-1,-8.995178938E-1
3.840706234E1,6.919088364E-1,2.057685852E-1,-9.310668111E-1
3.842696083E1,5.449237823E-1,1.626100540E-1,-8.835974932E-1
3.844685380E1,2.528915405E-1,1.135091782E-1,-8.006204367E-1
3.846675229E1,-6.584405899E-2,6.528043747E-2,-6.790629029E-1
3.848659869E1,-2.731561661E-1,1.096525192E-1,-6.332415938E-1
3.850655271E1,-1.679186821E-1,2.067036629E-1,-7.355946302E-1
3.852641151E1,1.955718994E-1,1.090531349E-1,-1.028096914E0
3.854628843E1,3.645415306E-1,-2.066192627E-1,-1.301734209E0
3.856621218E1,4.423503876E-1,-5.170717239E-1,-1.580576301E0
3.858609614E1,5.479874611E-1,-6.059913635E-1,-1.788486481E0
3.860598937E1,5.396561623E-1,-5.876135826E-1,-1.853837729E0
3.862584932E1,3.028435707E-1,-6.210503578E-1,-1.738689184E0
3.864576422E1,-5.955648422E-2,-7.590122223E-1,-1.559729099E0
3.866563781E1,-3.696951866E-1,-8.413147926E-1,-1.444270849E0
3.868553781E1,-3.991079330E-1,-8.236274719E-1,-1.439742446E0
3.870543901E1,1.179637909E-1,-8.339829445E-1,-1.331266999E0
3.872532369E1,5.344901085E-1,-9.597573280E-1,-1.101563334E0
3.874520677E1,6.263937950E-1,-9.753675461E-1,-8.611062765E-1
3.876510474E1,5.285162926E-1,-7.775363922E-1,-5.021917224E-1
3.878499073E1,5.799827576E-1,-5.904450417E-1,-2.885744572E-1
3.880488281E1,7.960853577E-1,-4.481081963E-1,-1.343203783E-1
3.882479390E1,9.032816887E-1,-2.077879906E-1,4.253625870E-2
3.884464198E1,9.886183739E-1,1.945257187E-2,1.460778713E-2
3.886456474E1,9.415268898E-1,1.994428635E-1,6.868076324E-2
3.888443593E1,7.951765060E-1,3.809289932E-1,2.599899769E-1
3.890435760E1,7.004547119E-1,4.980573654E-1,3.266088963E-1
3.892432187E1,5.774922371E-1,6.024575233E-1,4.289439321E-1
3.894414317E1,4.169626236E-1,7.288208008E-1,6.139252782E-1
3.896402755E1,2.464857101E-1,8.151006699E-1,6.533233523E-1
3.898388802E1,3.237724304E-4,8.817558289E-1,6.681473851E-1
3.900383520E1,-9.435176849E-2,9.072871208E-1,6.412363648E-1
3.902366151E1,-5.482149124E-2,8.613953590E-1,5.686197877E-1
3.904357244E1,4.493188858E-2,7.758464813E-1,4.271284938E-1
3.906347239E1,7.388114929E-2,7.108559608E-1,4.120058417E-1
3.908336661E1,2.013683319E-3,5.349788666E-1,3.656329513E-1
3.910325177E1,-1.520586014E-2,3.068022728E-1,3.403486609E-1
3.912312729E1,2.265596390E-2,1.338438988E-1,3.888764977E-1
3.914307083E1,-7.608461380E-2,-3.589725494E-2,3.808379173E-1
3.916290692E1,-2.348947525E-1,-1.442813873E-1,4.642796516E-1
3.918281406E1,-3.643355370E-1,-2.430949211E-1,5.088577271E-1
3.920271192E1,-2.428874969E-1,-2.973265648E-1,4.021546245E-1
3.922261515E1,-1.405758858E-1,-2.758646011E-1,3.629536629E-1
3.924247229E1,-7.700967789E-2,-2.874593735E-1,3.446930647E-1
3.926237500E1,-8.894872665E-2,-3.147454262E-1,3.881146312E-1
3.928227218E1,-2.337656021E-1,-3.685131073E-1,4.683749676E-1
3.930221588E1,-2.925572395E-1,-4.657897949E-1,4.506188333E-1
3.932210593E1,-2.649502754E-1,-4.128680229E-1,4.323689938E-1
3.934193817E1,-2.096486092E-1,-3.084402084E-1,1.889212132E-1
3.936182875E1,-8.990240097E-2,-2.176847458E-1,1.170325279E-2
3.938175609E1,4.126882553E-2,-1.912283897E-1,-1.173567772E-2
3.940163010E1,6.950998306E-2,-2.124571800E-1,-1.185453534E-1
3.942149760E1,-4.633188248E-2,-1.303205490E-1,-7.332932949E-2
3.944141906E1,-1.090116501E-1,4.735946655E-2,-5.166053772E-3
3.946128406E1,-4.859542847E-2,1.571722031E-1,2.173912525E-2
3.948119713E1,5.784034729E-2,1.346387863E-1,9.783387184E-3
3.950112203E1,8.318758011E-2,1.206645966E-1,1.188707352E-2
3.952095015E1,7.728290558E-2,7.498359680E-2,4.113757610E-2
3.954083526E1,8.606386185E-2,-8.842945099E-3,5.782091618E-2
3.956074146E1,1.006479263E-1,-9.200811386E-2,9.361016750E-2
